Time(mS),ppg,LPF1,LPF2,LPF3,LPF4,Acc x(m/s2),Acc y(m/s2),Acc z(m/s2)
0,2.191,28162,21095,14106,22839,0.147476,0.041253,0.0699416
20,2.24,28146,21076,14088,22831,0.175938,0.0522286,0.388102
40,2.302,28127,21053,14066,22816,0.214962,0.0739704,0.467137
60,2.323,28103,21026,14040,22794,0.142815,0.0718638,0.360411
80,2.366,28076,20996,14009,22765,0.0572174,0.0656768,0.47937
100,2.341,28047,20963,13974,22730,0.0359075,0.0500661,0.360478
120,2.324,28016,20930,13938,22690,-0.0260847,0.0434428,0.288307
140,2.276,27985,20897,13902,22648,-0.0614338,0.0329818,0.315352
160,2.24,27955,20867,13867,22604,-0.0951892,0.00790436,0.244494
180,2.218,27928,20840,13835,22562,-0.160272,-0.011979,0.211321
200,2.201,27906,20818,13809,22523,-0.249217,-0.025829,-0.0535851
220,2.201,27890,20803,13789,22491,-0.195322,-0.0296642,-0.0988853
240,2.195,27881,20796,13778,22466,-0.125569,-0.0297645,0.145228
260,2.183,27880,20797,13775,22450,-0.136079,-0.0263826,0.0636955
280,2.197,27888,20806,13782,22444,-0.154409,-0.00910832,-0.151252
300,2.198,27903,20823,13797,22449,-0.171543,-0.00494494,-0.202376
320,2.214,27925,20847,13820,22463,-0.133746,-0.00381992,-0.162291
340,2.237,27952,20877,13850,22486,-0.0876047,-0.00245428,-0.184413
360,2.235,27984,20911,13885,22516,-0.0372139,0.00301125,-0.144952
380,2.239,28018,20947,13924,22551,-0.000156576,0.00133006,-0.0204953
400,2.232,28053,20984,13964,22589,0.0137429,0.000193468,-0.0545131
420,2.236,28086,21021,14004,22628,0.0634036,0.00791361,0.130485
440,2.328,28116,21055,14042,22666,0.0780842,0.0251322,0.201537
460,2.544,28143,21085,14077,22701,0.114483,0.0505781,0.163755
480,2.866,28165,21112,14108,22732,0.125966,0.0546245,0.185223
500,3.11,28183,21136,14135,22758,0.0859277,0.0427293,0.168772
520,3.187,28196,21155,14158,22778,0.0483928,0.0255747,0.0471879
540,3.165,28206,21172,14177,22794,0.000890337,-0.00506732,-0.0826146
560,3.032,28213,21187,14193,22806,0.0173698,-0.0272443,-0.0586836
580,2.786,28218,21201,14206,22814,0.0366064,-0.0457371,-0.0444434
600,2.586,28223,21215,14219,22820,0.00298891,-0.0484764,-0.0283175
620,2.411,28228,21229,14230,22824,-0.0128114,-0.0496097,-0.176435
640,2.302,28235,21246,14243,22828,-0.0109193,-0.0485808,-0.274568
660,2.242,28243,21265,14256,22833,0.0112816,-0.0369052,-0.301178
680,2.194,28253,21286,14271,22838,0.0138639,-0.0261731,-0.363998
700,2.162,28266,21309,14286,22844,0.00473518,-0.0280544,-0.301814
720,2.156,28280,21333,14303,22850,0.0464811,-0.031686,-0.108902
740,2.194,28295,21359,14319,22856,0.0227873,-0.0371976,-0.216577
760,2.23,28310,21384,14334,22860,0.0502764,-0.0335837,-0.265437
780,2.314,28324,21408,14348,22862,0.0825761,-0.0327992,-0.115156
800,2.36,28337,21429,14359,22862,0.0768495,-0.0272622,-0.0325378
820,2.37,28347,21447,14367,22857,0.113872,-0.0167676,0.141284
840,2.366,28354,21461,14371,22847,0.0852702,0.00228427,0.193989
860,2.323,28357,21471,14371,22832,0.0577685,0.0253275,0.205315
880,2.295,28357,21477,14367,22813,0.0251323,0.0436734,0.271177
900,2.242,28353,21478,14359,22789,0.017153,0.0560719,0.254496
920,2.212,28347,21477,14349,22761,0.0255825,0.0488806,0.265966
940,2.201,28339,21473,14336,22731,-0.0198683,0.0349608,0.222984
960,2.19,28329,21469,14324,22701,-0.0328045,0.0114709,0.254209
980,2.18,28320,21465,14312,22671,-0.0913213,-0.0149705,0.162266
1000,2.172,28313,21463,14302,22645,-0.125992,-0.0215873,-0.0590802
1020,2.181,28308,21465,14295,22622,-0.0954568,-0.0238413,0.017496
1040,2.209,28307,21471,14294,22606,-0.104217,-0.0143962,0.0105438
1060,2.198,28311,21481,14297,22596,-0.0734132,-0.00148763,-0.0429373
1080,2.218,28320,21497,14305,22593,-0.095297,0.00139393,-0.157283
1100,2.232,28334,21518,14319,22598,-0.0793934,0.00666577,-0.166516
1120,2.256,28353,21543,14338,22610,-0.0118655,0.0119026,-0.0433585
1140,2.251,28376,21573,14361,22629,0.00769294,0.0243619,-0.155168
1160,2.24,28402,21604,14388,22653,0.0424351,0.0349965,-0.190777
1180,2.204,28430,21637,14415,22680,0.0729504,0.0189882,-0.0621688
1200,2.257,28458,21669,14443,22708,0.0421082,0.00744397,-0.276156
1220,2.439,28485,21699,14469,22737,0.0820973,-0.00966887,-0.178618
1240,2.748,28509,21727,14493,22765,0.105691,-0.0111013,-0.0233849
1260,3.055,28531,21750,14513,22790,0.0931849,0.00587262,-0.149682
1280,3.187,28548,21768,14529,22812,0.10257,0.0140007,-0.171212
1300,3.186,28560,21779,14539,22827,0.0881854,0.0238898,-0.0768241
1320,3.108,28567,21786,14544,22838,0.113395,0.0349175,0.117176
1340,2.885,28570,21786,14544,22844,0.0936054,0.0397023,0.108936
1360,2.638,28568,21782,14539,22844,0.0626754,0.0445555,0.0837423
1380,2.442,28563,21774,14529,22840,0.0219983,0.036414,0.00702253
1400,2.313,28554,21761,14516,22832,-0.0120286,0.0293544,-0.137115
1420,2.247,28543,21746,14499,22820,-0.0277208,0.0162825,0.0508484
1440,2.176,28530,21728,14480,22805,-0.0524672,-0.00220962,-0.000639031
1460,2.155,28517,21709,14460,22787,-0.0456117,-0.0100012,0.041193
1480,2.152,28503,21689,14438,22768,-0.0620579,-0.0123487,0.201994
1500,2.212,28489,21669,14416,22746,-0.0876475,-0.00114253,0.0979064
1520,2.256,28476,21650,14394,22723,-0.0633086,0.00965759,0.149994
1540,2.311,28463,21632,14372,22700,-0.0763334,0.0218191,0.233383
1560,2.321,28451,21615,14351,22675,-0.0736401,0.0341628,0.178251
1580,2.304,28441,21600,14331,22651,-0.0803504,0.0224266,0.209664
1600,2.302,28433,21587,14313,22628,-0.117127,0.019086,0.158665
1620,2.286,28426,21577,14297,22606,-0.107806,4.30E-05,0.0793747
1640,2.258,28421,21568,14283,22586,-0.104572,-0.0134176,0.0619072
1660,2.242,28419,21562,14271,22569,-0.067853,-0.0198754,0.157414
1680,2.222,28419,21559,14263,22556,-0.0631225,-0.0315976,0.116127
1700,2.191,28421,21558,14258,22547,-0.0490492,-0.0300934,0.0528634
1720,2.153,28427,21560,14256,22542,-0.0323925,-0.0253751,0.197166
1740,2.141,28436,21565,14258,22542,-0.046148,-0.0185341,-0.0432773
1760,2.148,28447,21572,14262,22547,-0.0183614,0.00178437,-0.157659
1780,2.146,28461,21582,14270,22556,0.0175109,-0.000814778,-0.157712
1800,2.134,28478,21593,14279,22569,0.044387,-0.00300734,-0.127132
1820,2.146,28497,21607,14291,22585,0.0435191,-0.0121629,-0.0658882
1840,2.152,28517,21621,14304,22602,0.0177219,-0.0332484,-0.216944
1860,2.132,28538,21636,14317,22620,0.0217395,-0.0379227,-0.216971
1880,2.149,28558,21651,14330,22638,0.060973,-0.0393102,-0.140587
1900,2.158,28578,21665,14341,22653,0.0776923,-0.0295904,-0.1543
1920,2.177,28595,21678,14351,22665,0.0984354,-0.0161779,-0.0413722
1940,2.297,28608,21688,14358,22673,0.0737773,-0.00904373,0.0595826
1960,2.544,28618,21697,14361,22676,0.0370739,0.00258206,-0.092436
1980,2.791,28624,21702,14361,22673,0.0221839,0.0139667,-0.0877697
2000,2.98,28625,21705,14357,22665,0.0334853,0.0248845,-0.00205214
2020,3.01,28621,21704,14350,22650,0.0406085,0.0226655,0.0833283
2040,2.92,28613,21701,14339,22629,-0.00950411,0.00856676,0.185257
2060,2.745,28601,21695,14324,22603,-0.0300251,-0.000355612,0.242146
2080,2.538,28585,21686,14307,22573,-0.0555338,-0.00959748,0.127485
2100,2.387,28567,21677,14287,22539,-0.0602583,-0.00234102,0.12003
2120,2.251,28548,21666,14267,22504,-0.0472209,0.00453365,0.150257
2140,2.166,28529,21656,14246,22467,-0.0559534,0.00778337,0.145536
2160,2.11,28511,21647,14226,22432,-0.0659133,0.0112143,0.165261
2180,2.058,28495,21640,14208,22398,-0.101881,0.0037319,0.0851835
2200,2.096,28482,21635,14192,22368,-0.0905366,0.000205268,0.0536871
2220,2.12,28473,21632,14179,22342,-0.0611819,-0.006431,0.080307
2240,2.215,28469,21633,14171,22321,-0.0604455,-0.0042956,0.101052
2260,2.275,28469,21637,14166,22306,-0.0565694,-0.00236715,-0.0399075
2280,2.344,28473,21644,14166,22297,-0.0086515,-0.00366284,0.105521
2300,2.363,28482,21655,14169,22294,0.00404598,-0.00408285,0.266855
2320,2.351,28494,21668,14177,22297,0.0109492,7.65E-05,0.0966859
2340,2.318,28508,21683,14188,22304,0.0205234,0.0103502,0.0505257
2360,2.281,28525,21699,14201,22315,0.0483864,0.0174063,0.0221353
2380,2.244,28543,21717,14216,22329,0.0837358,0.0202317,0.184531
2400,2.209,28562,21736,14233,22346,0.0216958,0.0146842,0.0293157
2420,2.16,28580,21754,14251,22364,-0.0151593,-0.00807027,-0.417863
2440,2.152,28598,21772,14268,22383,-0.00672204,-0.0369585,-0.689163
2460,2.139,28615,21789,14286,22401,0.0523443,-0.064765,-0.685835
2480,2.148,28630,21805,14302,22418,0.0950574,-0.0699896,-0.429337
2500,2.162,28644,21820,14317,22434,0.0708125,-0.0714839,-0.551495
2520,2.132,28655,21832,14331,22446,0.062025,-0.0652842,-0.77595
2540,2.152,28663,21842,14341,22455,0.0847309,-0.0635504,-0.665113
2560,2.156,28668,21848,14347,22460,0.10139,-0.0431107,-0.410093
2580,2.145,28668,21849,14349,22458,0.0957182,-0.0135331,-0.466235
2600,2.12,28662,21846,14346,22449,0.203369,0.0098359,-0.444276
2620,2.125,28648,21835,14335,22431,0.242673,0.0227041,-0.285088
2640,2.212,28626,21817,14316,22404,0.251787,0.0277755,-0.0343564
2660,2.468,28594,21790,14289,22367,0.2577,0.0292627,0.147588
2680,2.766,28554,21756,14253,22320,0.194966,0.033529,0.0989419
2700,3.003,28503,21713,14209,22263,0.261083,0.0300439,0.250232
2720,3.068,28444,21663,14158,22199,0.199069,0.022494,0.550274
2740,3.001,28378,21606,14100,22127,0.093129,0.0371408,0.796169
2760,2.808,28306,21545,14038,22050,0.0237412,0.0357583,0.775107
2780,2.575,28231,21483,13974,21973,-0.133117,0.0284617,0.607783
2800,2.416,28157,21420,13911,21896,-0.230392,0.0189088,0.535067
2820,2.289,28087,21361,13851,21824,-0.255303,0.0179907,0.704452
2840,2.225,28022,21307,13796,21759,-0.298025,0.0157662,0.559482
2860,2.198,27968,21262,13751,21705,-0.248009,-0.00290326,0.3795
2880,2.167,27926,21227,13716,21664,-0.206573,-0.0403292,0.235854
2900,2.146,27898,21204,13695,21638,-0.286813,-0.0564809,0.334269
2920,2.172,27887,21195,13688,21629,-0.373373,-0.0425334,-0.2509
2940,2.228,27892,21200,13695,21637,-0.301114,-0.0351152,-0.358716
2960,2.276,27914,21219,13716,21661,-0.276324,-0.0379078,-0.0487044
2980,2.302,27950,21250,13751,21701,-0.204477,-0.0289345,-0.212042
3000,2.332,27999,21292,13797,21755,-0.173811,-0.00874218,-0.209473
3020,2.316,28057,21342,13852,21818,-0.213396,0.00868255,-0.211144
3040,2.313,28123,21398,13914,21889,-0.148342,0.0463871,-0.14612
3060,2.292,28191,21457,13978,21964,-0.105704,0.0648306,0.0615342
3080,2.242,28258,21517,14043,22038,-0.0756141,0.0873005,0.193052
3100,2.208,28322,21573,14105,22109,-0.0417539,0.0945782,0.140757
3120,2.163,28380,21624,14162,22174,-0.00497425,0.068698,0.201862
3140,2.158,28428,21669,14212,22229,0.027881,0.0647878,0.198729
3160,2.149,28468,21707,14254,22275,0.0980083,0.0639474,0.35734
3180,2.132,28497,21736,14288,22309,0.0957081,0.0711329,0.633297
3200,2.132,28516,21758,14312,22332,0.0883256,0.0701928,0.441535
3220,2.131,28528,21774,14330,22345,0.0802604,0.0410797,0.384656
3240,2.177,28533,21784,14340,22349,0.0501549,0.0165202,0.310411
3260,2.174,28534,21791,14347,22347,0.0875243,0.0170807,0.272979
3280,2.158,28533,21797,14351,22341,0.0410516,0.0117462,0.11591
3300,2.148,28534,21803,14355,22335,-0.01275,0.00289837,-0.0927793
3320,2.158,28538,21812,14361,22330,-0.0207714,-0.0190696,-0.322335
3340,2.193,28546,21825,14370,22330,-0.0457773,-0.0443165,-0.34498
3360,2.377,28560,21842,14384,22336,-0.0778698,-0.0568512,-1.03131
3380,2.66,28581,21864,14403,22349,0.0583557,-0.0823693,-0.868621
3400,2.936,28607,21890,14427,22369,0.025057,-0.0920417,-0.650904
3420,3.075,28637,21919,14455,22396,0.0674159,-0.0559184,-0.782058
3440,3.06,28670,21949,14484,22427,0.140348,-0.0205636,-0.530299
3460,2.966,28702,21978,14513,22459,0.111873,0.00351155,-0.576812
3480,2.821,28731,22004,14539,22491,0.209054,0.0332252,-0.489101
3500,2.645,28754,22023,14559,22519,0.133559,0.0405869,-0.44587
3520,2.449,28768,22034,14571,22539,0.128863,0.0620167,-0.267023
3540,2.339,28772,22034,14573,22550,0.145716,0.0597263,-0.225356
3560,2.27,28763,22024,14564,22547,0.0966412,0.0416756,-0.265898
3580,2.242,28741,22001,14542,22531,0.159534,0.0214882,0.0681106
3600,2.235,28706,21967,14507,22501,0.139353,0.00261895,0.197681
3620,2.209,28660,21923,14461,22457,0.0957265,0.0174421,0.074454
3640,2.208,28603,21869,14405,22400,0.12816,0.0133982,0.11924
3660,2.237,28538,21808,14342,22333,0.108564,0.0119613,0.278233
3680,2.27,28469,21744,14273,22259,0.109305,0.0157837,0.303541
3700,2.323,28398,21678,14203,22181,0.0815896,0.00814865,0.173498
3720,2.352,28329,21614,14134,22103,0.100205,0.0123901,0.284002
3740,2.353,28264,21554,14069,22027,0.160228,0.00881872,0.310983
3760,2.324,28206,21500,14010,21958,0.0995249,0.00461303,0.140604
3780,2.317,28157,21454,13961,21898,0.0815117,-0.00600834,0.274858
3800,2.272,28119,21417,13921,21848,0.0530756,-0.0332729,0.279006
3820,2.214,28092,21390,13892,21811,-0.0241612,-0.0374132,0.199724
3840,2.201,28075,21372,13874,21787,-0.0727725,-0.0403603,0.105692
3860,2.177,28070,21364,13867,21776,-0.102617,-0.0191546,0.0995393
3880,2.174,28073,21363,13869,21776,-0.134925,0.00245707,0.0754989
3900,2.174,28085,21370,13880,21788,-0.156737,0.0111174,0.022487
3920,2.163,28103,21381,13897,21809,-0.164553,0.0292704,0.120967
3940,2.207,28125,21396,13920,21838,-0.20069,0.032977,0.117411
3960,2.243,28151,21414,13946,21872,-0.215066,0.0404928,-0.0474254
3980,2.253,28178,21434,13974,21910,-0.165634,0.0382699,-0.0154975
4000,2.258,28204,21454,14003,21950,-0.201985,0.0287177,-0.0701135
4020,2.257,28230,21473,14032,21989,-0.164092,0.0300542,-0.0857811
4040,2.242,28254,21492,14060,22027,-0.101936,0.0179263,0.162525
4060,2.243,28276,21510,14085,22063,-0.113903,0.00494261,0.160308
4080,2.363,28295,21527,14108,22094,-0.0618421,0.00433883,0.239168
4100,2.642,28312,21542,14129,22122,-0.0488589,0.00181215,0.162794
4120,2.965,28326,21556,14147,22144,-0.00210605,0.0166226,0.134855
4140,3.172,28338,21569,14162,22163,0.0275434,0.0287701,0.181336
4160,3.189,28349,21582,14175,22177,0.0526115,0.0314549,0.208231
4180,3.154,28358,21594,14186,22188,0.041446,0.0233705,0.174603
4200,2.992,28366,21605,14195,22196,-0.0213753,-0.00295071,-0.123258
4220,2.768,28375,21617,14204,22202,0.00926873,-0.0220814,-0.215663
4240,2.562,28385,21629,14212,22207,0.083182,-0.0447071,0.00458874
4260,2.444,28395,21642,14220,22213,0.0435259,-0.0444548,-0.16105
4280,2.372,28407,21655,14228,22219,0.0237581,-0.0477116,-0.377272
4300,2.32,28420,21669,14237,22226,-0.00386927,-0.0624126,-0.347538
4320,2.285,28435,21683,14246,22234,0.0382294,-0.0612558,-0.18628
4340,2.214,28450,21697,14255,22242,0.0396864,-0.0430839,-0.265393
4360,2.221,28465,21710,14264,22251,0.032274,-0.0211768,-0.250989
4380,2.243,28479,21721,14271,22259,0.0567809,1.36E-05,-0.0949806
4400,2.271,28490,21730,14277,22265,0.0448375,0.00387044,-0.063142
4420,2.303,28499,21736,14280,22269,0.0780263,0.0160572,0.0697558
4440,2.358,28503,21738,14280,22270,0.0478321,0.00836004,0.0822151
4460,2.381,28503,21736,14277,22267,0.0307493,-0.000211865,0.0452061
4480,2.37,28498,21729,14270,22260,0.0140511,-0.0102543,0.197842
4500,2.335,28488,21719,14260,22248,-0.0192367,-0.0121043,0.178513
4520,2.3,28473,21705,14247,22233,0.0223394,-0.0110424,0.249217
4540,2.256,28454,21688,14232,22214,-0.0517969,-0.0258439,0.184176
4560,2.226,28433,21670,14216,22194,-0.074812,-0.0406839,-0.043209
4580,2.211,28412,21652,14199,22172,-0.0602733,-0.0460066,-0.0556755
4600,2.191,28391,21635,14184,22152,-0.0868412,-0.0534885,-0.0613584
4620,2.195,28372,21620,14170,22133,-0.0429824,-0.0518841,-0.0904325
4640,2.207,28356,21608,14159,22117,-0.0318933,-0.0656486,-0.166873
4660,2.218,28345,21599,14152,22105,0.00709868,-0.0578547,-0.0374369
4680,2.19,28339,21595,14148,22098,0.00706722,-0.0439624,-0.0979853
4700,2.215,28338,21595,14148,22095,-0.00335636,-0.0245161,-0.278388
4720,2.242,28341,21599,14152,22097,0.0545427,-0.0117716,-0.192007
4740,2.232,28348,21605,14158,22102,0.100849,-0.0139336,0.061373
4760,2.188,28357,21614,14166,22111,0.0435041,-0.000730361,-0.0533185
4780,2.191,28368,21622,14174,22121,0.0733056,0.00823531,-0.111504
4800,2.268,28378,21631,14183,22132,0.0949011,0.0165074,0.234864
4820,2.484,28387,21638,14190,22142,0.0431452,0.0282524,0.0818972
4840,2.797,28392,21643,14195,22150,0.0596904,0.0346504,0.0665265
4860,3.073,28395,21644,14198,22156,0.0346458,0.034404,0.246045
4880,3.179,28394,21643,14198,22158,-0.0209806,0.0296319,0.269673
4900,3.166,28389,21639,14196,22158,-0.050148,0.0217754,0.126873
4920,3.034,28381,21633,14191,22155,-0.0362201,0.016655,0.177165
4940,2.839,28372,21625,14185,22149,-0.0567119,0.0123451,0.198377
4960,2.618,28361,21617,14178,22142,-0.0543455,0.00732874,0.170459
4980,2.461,28352,21609,14172,22134,-0.0542556,0.00276385,0.216524
5000,2.372,28344,21603,14165,22128,-0.0830255,-0.00597314,0.20652
5020,2.337,28339,21599,14161,22122,-0.0968016,-0.0105227,0.0253148
5040,2.306,28338,21599,14159,22120,-0.0846483,-0.00954608,0.0579976
5060,2.243,28341,21602,14160,22121,-0.0938082,-0.011063,-0.0644408
5080,2.218,28350,21609,14163,22125,-0.0892511,-0.0156449,-0.235822
5100,2.229,28363,21620,14170,22134,-0.0794961,-0.0192919,-0.243113
5120,2.258,28381,21635,14180,22146,-0.0269176,-0.0171958,-0.261747
5140,2.313,28402,21653,14192,22162,0.00488743,-0.0119421,-0.268494
5160,2.37,28426,21672,14207,22180,0.00664513,-0.0112352,-0.326182
5180,2.395,28451,21693,14222,22201,0.0514179,-0.0114236,-0.270541
5200,2.384,28476,21713,14237,22221,0.0556082,0.00249866,-0.34003
5220,2.352,28499,21732,14252,22241,0.106175,0.0172065,-0.262899
5240,2.281,28519,21749,14265,22258,0.161857,0.0259141,-0.112635
5260,2.242,28535,21763,14275,22272,0.133991,0.0315612,-0.0938261
5280,2.218,28546,21772,14282,22282,0.112027,0.030325,-0.130607
5300,2.181,28552,21777,14284,22286,0.124821,0.032845,0.0557138
5320,2.162,28551,21776,14282,22285,0.13403,0.0384091,0.0751869
5340,2.146,28544,21771,14276,22277,0.126979,0.0331907,0.0830937
5360,2.128,28532,21761,14265,22263,0.0792859,0.0276965,0.109065
5380,2.137,28514,21747,14251,22244,0.0185743,0.0137724,0.00647115
5400,2.139,28493,21730,14233,22220,-0.0208373,-0.00974308,-0.052426
5420,2.137,28469,21711,14213,22192,-0.0223703,-0.0308183,0.115892
5440,2.152,28444,21690,14191,22162,-0.02141,-0.0447407,0.129221
5460,2.152,28419,21670,14169,22131,-0.0506974,-0.0458021,0.122662
5480,2.153,28395,21650,14148,22100,-0.0904598,-0.039114,0.00494479
5500,2.151,28373,21633,14128,22072,-0.100481,-0.0339317,-0.0179765
5520,2.145,28355,21618,14110,22047,-0.0926893,-0.0273745,0.0441698
5540,2.163,28342,21607,14096,22025,-0.105173,-0.0300506,0.0181365
5560,2.3,28332,21599,14085,22009,-0.107948,-0.0287766,-0.171473
5580,2.524,28328,21595,14077,21998,-0.0949279,-0.0359406,-0.113199
5600,2.812,28328,21594,14073,21992,-0.0754372,-0.031946,-0.0998871
5620,3.004,28331,21596,14072,21992,-0.0119222,-0.0289498,0.0395755
5640,3.024,28338,21601,14074,21996,0.0107256,-0.0215971,0.179997
5660,2.923,28347,21607,14077,22003,0.0181651,-0.0114961,0.107527
5680,2.744,28357,21614,14082,22013,0.0295248,0.000899224,0.230368
5700,2.538,28368,21622,14088,22025,0.00775183,0.0174742,0.226335
5720,2.379,28379,21629,14094,22037,0.0222491,0.0288979,0.30654
5740,2.256,28389,21636,14100,22050,-0.0168181,0.0258774,0.305191
5760,2.176,28398,21643,14105,22061,-0.0243732,0.0207732,0.296825
5780,2.151,28406,21649,14111,22071,-0.0196167,0.0068622,0.279696
5800,2.144,28415,21655,14116,22081,-0.0366679,-0.0106002,0.2208
5820,2.145,28423,21662,14122,22090,-0.0373727,-0.0250943,0.235207
5840,2.158,28433,21670,14128,22098,-0.0912708,-0.0412041,-0.00281988
5860,2.204,28445,21681,14136,22107,-0.0667069,-0.0380933,0.0168959
5880,2.254,28459,21693,14146,22117,-0.0862162,-0.0369986,-0.0116892
5900,2.309,28477,21709,14158,22128,-0.0944326,-0.0261211,-0.160528
5920,2.316,28497,21727,14173,22142,-0.0462952,-0.0238867,-0.09305
5940,2.309,28521,21748,14190,22157,-0.0773488,-0.0255405,-0.177178
5960,2.265,28547,21772,14209,22174,-0.0543673,-0.0206102,-0.364336
5980,2.24,28576,21798,14230,22194,0.00335842,-0.0260279,-0.449736
6000,2.208,28605,21825,14252,22214,0.057932,-0.0353639,-0.208836
6020,2.176,28635,21851,14274,22235,0.119463,-0.04032,0.074662
6040,2.153,28663,21877,14294,22255,0.0692916,-0.0309617,-0.11108
6060,2.134,28689,21900,14312,22274,0.09273,-0.00309559,-0.152969
6080,2.153,28710,21919,14327,22289,0.0764374,0.00814976,-0.2822
6100,2.127,28727,21933,14338,22302,0.141255,0.0181263,-0.124273
6120,2.114,28738,21943,14344,22309,0.196736,0.0158178,0.139139
6140,2.138,28744,21947,14344,22312,0.158418,0.0119504,0.251819
6160,2.138,28743,21945,14340,22309,0.101653,0.0170069,0.198396
6180,2.146,28737,21938,14331,22302,-0.0295215,0.00985677,-0.0597903
6200,2.141,28725,21927,14317,22289,-0.0253924,0.0124349,-0.25519
6220,2.134,28710,21913,14300,22273,0.0122956,-0.00600933,-0.0998939
6240,2.142,28693,21896,14282,22253,0.016171,-0.0211888,0.00333231
6260,2.172,28675,21878,14262,22232,-0.00796576,-0.0418364,-0.0567928
6280,2.274,28656,21860,14242,22211,-0.109143,-0.0489586,-0.244202
6300,2.491,28638,21843,14222,22189,-0.0983915,-0.0297331,-0.344071
6320,2.745,28622,21827,14205,22169,-0.0174903,-0.0135167,-0.20097
6340,2.929,28608,21814,14189,22150,0.0404,0.0142312,0.102367
6360,2.973,28596,21802,14175,22134,0.0357524,0.0282981,0.150489
6380,2.888,28586,21792,14164,22120,-0.0272033,0.0286902,0.0813535
6400,2.727,28577,21784,14154,22108,-0.0621083,0.0322596,0.0165534
6420,2.542,28569,21776,14145,22097,-0.0367601,0.0312481,0.028714
6440,2.369,28560,21769,14138,22089,0.00744757,0.0363744,0.277929
6460,2.253,28551,21762,14131,22081,0.0182072,0.0367151,0.344102
6480,2.181,28541,21754,14125,22074,-0.00630619,0.0235172,0.386562
6500,2.152,28530,21746,14119,22069,-0.0920815,0.00136577,0.0898905
6520,2.13,28518,21738,14113,22063,-0.0757535,-0.0241178,-0.020768
6540,2.11,28506,21731,14108,22059,-0.0452058,-0.0283119,0.0818911
6560,2.137,28494,21723,14105,22057,-0.0603614,-0.0211997,-0.0202364
6580,2.191,28484,21717,14103,22055,-0.0312044,-0.0138383,-0.0625425
6600,2.263,28476,21713,14102,22056,-0.0814239,-0.0177432,-0.13639
6620,2.29,28472,21712,14105,22060,-0.0440821,-0.0195679,-0.276445
6640,2.307,28471,21713,14109,22066,0.0288295,-0.0222795,-0.164389
6660,2.288,28474,21717,14116,22074,0.0582822,-0.00582205,0.130915
6680,2.282,28480,21723,14125,22084,0.0456365,0.01733,0.0947753
6700,2.258,28489,21731,14135,22096,-0.00431507,0.0319524,-0.15835
6720,2.204,28500,21740,14146,22109,0.0180966,0.0314119,-0.153869
6740,2.146,28511,21749,14157,22121,0.0365115,0.0165633,-0.104027
6760,2.123,28521,21758,14168,22133,0.0639283,0.0124746,0.0608255
6780,2.125,28530,21765,14176,22142,0.0642899,0.00832761,0.274066
6800,2.116,28535,21769,14183,22149,0.00967512,0.0126507,0.296723
6820,2.124,28536,21770,14187,22153,-0.0471208,0.0154816,0.16901
6840,2.139,28533,21769,14188,22153,-0.0326157,0.00585712,0.165821
6860,2.155,28526,21764,14187,22150,-0.0217619,0.00639182,0.150321
6880,2.158,28515,21756,14183,22145,-0.00805636,0.00387914,0.242902
6900,2.181,28502,21747,14178,22138,-0.0730811,-0.00424461,0.0712222
6920,2.169,28488,21736,14173,22130,-0.121547,-0.0150446,-0.0845835
6940,2.159,28475,21727,14168,22122,-0.0808901,-0.0310624,-0.0688975
6960,2.177,28464,21718,14164,22116,-0.0759035,-0.0376199,-0.138472
6980,2.197,28455,21712,14162,22112,-0.0510582,-0.0308129,-0.220391
7000,2.215,28451,21708,14163,22112,0.00707235,-0.0323653,-0.178542
7020,2.279,28451,21708,14166,22115,-0.00414605,-0.0240204,-0.22621
7040,2.509,28455,21711,14172,22121,-0.0136254,-0.0219897,-0.381686
7060,2.786,28462,21716,14180,22130,0.0282284,-0.0176084,-0.3
7080,2.994,28473,21724,14190,22141,0.0595944,-0.00923922,-0.192738
7100,3.034,28484,21732,14200,22153,0.122294,0.0173,-0.106808
7120,2.964,28494,21740,14210,22165,0.160003,0.0350123,0.0974477
7140,2.784,28503,21747,14218,22176,0.133381,0.047601,0.144983
7160,2.587,28508,21751,14223,22183,0.107559,0.0482919,0.00540634
7180,2.426,28509,21751,14225,22187,0.10188,0.0373662,0.126355
7200,2.324,28504,21748,14223,22186,0.0664335,0.0409709,0.0686853
7220,2.261,28495,21741,14218,22181,0.0685293,0.0366991,0.0936864
7240,2.236,28480,21729,14208,22171,0.0100959,0.0204061,0.249129
7260,2.212,28462,21715,14196,22158,-0.00408102,-0.00315485,0.137583
7280,2.197,28441,21699,14182,22141,-0.0228611,-0.0168449,0.133605
7300,2.197,28419,21681,14166,22123,-0.0750563,-0.0209655,0.153624
7320,2.242,28397,21664,14151,22105,-0.0490756,-0.0186811,0.163352
7340,2.285,28378,21649,14137,22087,-0.114832,-0.0218299,0.0240632
7360,2.324,28361,21636,14125,22072,-0.095966,-0.0232404,0.0647448
7380,2.36,28349,21626,14116,22061,-0.107307,-0.0312346,0.00974764
7400,2.37,28343,21620,14110,22053,-0.143533,-0.0309722,-0.192299
7420,2.341,28341,21618,14109,22050,-0.0867835,-0.0295751,-0.165927
7440,2.351,28344,21620,14111,22051,-0.0883763,-0.0359464,-0.182535
7460,2.309,28352,21626,14116,22057,-0.0300032,-0.028953,-0.197645
7480,2.267,28364,21634,14125,22067,0.00364925,-0.0393956,-0.182231
7500,2.232,28377,21643,14136,22080,0.00970449,-0.0311343,-0.218024
7520,2.2,28392,21654,14148,22094,0.06523,-0.0204401,-0.203799
7540,2.173,28406,21664,14161,22109,0.0892397,-0.00311558,-0.0860672
7560,2.179,28419,21674,14173,22123,0.107119,0.021212,-0.106782
7580,2.166,28428,21681,14183,22136,0.151433,0.0311801,0.00648646
7600,2.169,28434,21685,14191,22145,0.111143,0.0344178,0.0263833
7620,2.183,28436,21686,14196,22151,0.109049,0.0335352,0.0286677
7640,2.174,28433,21684,14198,22153,0.106728,0.0369246,0.0978492
7660,2.186,28426,21678,14197,22151,0.125145,0.0385929,0.226102
7680,2.221,28415,21670,14192,22144,0.0959893,0.0360158,0.29372
7700,2.23,28402,21660,14184,22133,0.00385064,0.044864,0.238011
7720,2.218,28385,21647,14174,22119,-0.00422855,0.038354,0.230833
7740,2.205,28368,21634,14163,22102,-0.0413331,0.0273465,0.192667
7760,2.207,28350,21621,14150,22084,-0.0482238,0.0222119,0.225647
7780,2.261,28334,21609,14138,22066,-0.0466144,0.0106519,0.298238
7800,2.474,28321,21598,14127,22049,-0.117493,0.0132335,0.20349
7820,2.807,28311,21590,14118,22035,-0.134188,0.00954307,0.107008
7840,3.124,28305,21586,14112,22025,-0.129549,0.00280705,0.11717
7860,3.186,28303,21585,14109,22020,-0.122673,0.00509366,-0.0214561
7880,3.189,28307,21588,14110,22019,-0.0874873,-0.00755198,-0.0291187
7900,3.082,28316,21595,14115,22025,-0.102128,-0.010107,-0.0181565
7920,2.875,28330,21606,14124,22036,-0.106497,-0.0118711,-0.153926
7940,2.682,28348,21621,14137,22053,-0.10524,-0.0160481,-0.220176
7960,2.521,28369,21638,14153,22075,-0.0344648,-0.00925993,-0.173552
7980,2.428,28393,21657,14171,22101,0.018352,0.0020361,-0.0398866
8000,2.362,28418,21678,14190,22129,0.00928335,0.00914638,-0.153404
8020,2.309,28444,21698,14211,22158,0.04356,0.0156151,-0.23525
8040,2.295,28468,21718,14230,22187,0.0431029,0.00622705,-0.232923
8060,2.235,28490,21736,14249,22215,0.0697172,0.00443186,-0.274073
8080,2.207,28509,21752,14265,22240,0.106558,0.00213111,-0.22975
8100,2.26,28524,21764,14278,22262,0.104216,-0.00556409,-0.258187
8120,2.302,28535,21773,14288,22278,0.124827,-0.0111006,-0.231934
8140,2.348,28541,21778,14294,22288,0.120318,-0.017415,-0.16924
8160,2.365,28541,21779,14296,22293,0.0872026,-0.0185709,-0.117663
8180,2.338,28537,21776,14293,22291,0.102433,-0.00675478,-0.0993633
8200,2.325,28528,21769,14286,22282,0.131715,0.000288607,-0.0457896
8220,2.292,28514,21758,14276,22267,0.119374,0.00931067,0.0960192
8240,2.221,28497,21744,14261,22247,0.0914256,0.0211237,0.104568
8260,2.207,28476,21726,14243,22221,0.0838425,0.0316778,0.114235
8280,2.186,28452,21707,14223,22191,0.0629367,0.0293261,0.187695
8300,2.187,28427,21686,14200,22158,0.0173841,0.0244575,0.203666
8320,2.188,28401,21663,14177,22123,-0.0235464,0.0162471,0.180967
8340,2.184,28375,21641,14153,22088,-0.0621593,0.00429669,0.0406408
8360,2.181,28350,21619,14130,22054,-0.080503,-0.00659204,-0.00715917
8380,2.198,28327,21599,14109,22023,-0.0917032,-0.0205104,0.00480155
8400,2.204,28307,21580,14090,21995,-0.123954,-0.0178287,-0.0791171
8420,2.201,28290,21565,14074,21972,-0.102878,-0.0122992,-0.00490377
8440,2.219,28276,21552,14061,21954,-0.117543,-0.00524747,-0.0389957
8460,2.243,28267,21542,14053,21943,-0.128222,0.0116741,-0.227382
8480,2.251,28261,21536,14048,21937,-0.0637494,0.0215869,-0.274385
8500,2.235,28259,21533,14048,21938,-0.000684007,0.0303667,-0.0437837
8520,2.242,28260,21533,14051,21943,-0.0197994,0.0434818,-0.00801168
8540,2.221,28264,21536,14056,21953,0.0674823,0.0514121,0.2982
8560,2.246,28269,21540,14064,21966,0.0560528,0.0702759,0.344226
8580,2.398,28275,21545,14073,21980,0.0285925,0.0825196,0.349655
8600,2.685,28280,21551,14082,21995,0.000327198,0.0829127,0.364959
8620,3.013,28285,21556,14091,22009,0.0150447,0.0716507,0.352676
8640,3.185,28289,21562,14099,22022,0.0482448,0.0556801,0.640669
8660,3.183,28293,21566,14106,22032,0.00914768,0.0458694,0.808535
8680,3.152,28296,21571,14112,22041,-0.0409837,0.0351329,0.65097
8700,2.965,28299,21576,14117,22048,-0.083836,0.00810052,0.444416
8720,2.731,28304,21582,14123,22055,-0.114467,-0.0067438,0.17569
8740,2.562,28312,21591,14130,22064,-0.0926892,-0.0229091,-0.125689
8760,2.46,28323,21603,14141,22075,-0.088456,-0.048685,-0.241191
8780,2.369,28340,21619,14155,22090,-0.130458,-0.085546,-0.264352
8800,2.346,28362,21640,14175,22111,-0.224433,-0.111738,-1.0919
8820,2.303,28391,21667,14199,22138,-0.114392,-0.128947,-0.796848
8840,2.276,28426,21698,14228,22171,-0.110845,-0.118935,-0.740911
8860,2.225,28465,21733,14261,22208,-0.0568104,-0.0753707,-0.673439
8880,2.258,28506,21770,14296,22249,0.0647242,-0.0441785,-0.359789
8900,2.27,28547,21807,14331,22289,0.0221556,-0.0228539,-0.530665
8920,2.3,28585,21841,14364,22328,0.120873,-0.00185962,-0.466095
8940,2.331,28618,21870,14391,22361,0.140656,0.00953591,-0.312785
8960,2.348,28642,21892,14411,22385,0.144873,0.036661,-0.17573
8980,2.339,28654,21903,14421,22398,0.158369,0.042053,-0.0409164
9000,2.306,28654,21903,14419,22398,0.158136,0.0385742,0.210989
9020,2.271,28640,21891,14404,22384,0.179651,0.0318545,0.251211
9040,2.258,28612,21867,14377,22355,0.169524,0.0107205,0.317804
9060,2.219,28571,21832,14339,22312,0.205198,0.00925249,0.422785
9080,2.201,28520,21788,14292,22258,0.224852,0.0117833,0.471526
9100,2.19,28462,21738,14238,22195,0.164497,0.016494,0.485423
9120,2.173,28400,21684,14180,22128,0.0399604,0.0229139,0.502311
9140,2.17,28338,21630,14122,22059,0.0524758,0.00265676,0.492091
9160,2.145,28280,21579,14068,21993,-0.00598865,-0.00528633,0.374154
9180,2.114,28230,21534,14020,21934,-0.0569287,-0.0162141,0.265254
9200,2.117,28190,21498,13981,21885,-0.107014,-0.0288232,0.125462
9220,2.135,28163,21473,13954,21849,-0.187282,-0.0360253,-0.023581
9240,2.153,28151,21459,13939,21828,-0.193152,-0.0555542,-0.116321
9260,2.181,28152,21457,13936,21821,-0.175894,-0.0579655,-0.233314
9280,2.17,28168,21467,13946,21830,-0.157427,-0.0598888,-0.222795
9300,2.191,28195,21487,13966,21852,-0.188771,-0.0326653,-0.320995
9320,2.184,28233,21515,13996,21886,-0.159608,0.00565003,-0.398884
9340,2.162,28277,21549,14031,21929,-0.130882,0.0158827,-0.419143
9360,2.172,28326,21587,14070,21978,-0.0890403,0.0163045,-0.395595
9380,2.327,28375,21625,14111,22029,-0.068604,0.0134074,-0.346781
9400,2.568,28422,21662,14150,22080,-0.0540932,0.00466476,-0.344397
9420,2.824,28465,21696,14185,22128,0.0435435,0.00309423,-0.134798
9440,3.018,28500,21724,14215,22168,0.0707283,0.0138668,-0.0661903
9460,3.048,28526,21746,14237,22200,0.138285,0.0230625,0.07197
9480,2.937,28542,21760,14250,22221,0.173023,0.0335546,0.256218
9500,2.727,28548,21766,14256,22232,0.124676,0.0332878,0.295044
9520,2.54,28544,21765,14253,22231,0.110419,0.0374172,0.256135
9540,2.381,28532,21757,14242,22220,0.154168,0.0319623,0.399428
9560,2.293,28512,21743,14225,22199,0.10572,0.0223098,0.439234
9580,2.222,28488,21726,14204,22171,0.0406807,0.0095709,0.400156
9600,2.193,28461,21706,14179,22139,0.00901777,-0.013321,0.233646
9620,2.169,28434,21687,14153,22104,-0.0188129,-0.0317675,0.201131
9640,2.152,28410,21668,14129,22069,-0.0342762,-0.0458186,0.240068
9660,2.166,28390,21654,14108,22038,-0.0674217,-0.0661536,0.162805
9680,2.18,28377,21644,14091,22013,-0.106758,-0.0649538,0.137347
9700,2.242,28371,21639,14081,21995,-0.163809,-0.0579924,-0.18093
9720,2.253,28374,21642,14077,21985,-0.144847,-0.0297667,-0.228048
9740,2.293,28386,21650,14080,21985,-0.119208,-0.0140838,-0.175655
9760,2.296,28406,21666,14091,21993,-0.100475,-0.00411964,-0.17413
9780,2.272,28433,21686,14107,22011,-0.0932786,-0.00458558,-0.183442
9800,2.261,28465,21710,14128,22035,-0.0921065,0.00190104,-0.248905
9820,2.243,28500,21737,14152,22064,-0.0303792,0.0119554,-0.210329
9840,2.204,28537,21765,14178,22097,0.0277444,0.0238292,-0.176493
9860,2.172,28572,21792,14204,22130,0.0394548,0.0352454,-0.0648655
9880,2.16,28605,21817,14228,22163,0.111123,0.0345221,0.0635159
9900,2.12,28633,21839,14249,22193,0.107461,0.0434771,0.186848
9920,2.124,28655,21856,14266,22218,0.0968685,0.057345,0.132945
9940,2.13,28670,21868,14279,22238,0.0867285,0.0417962,0.0331617
9960,2.12,28679,21875,14286,22252,0.107414,0.0387531,0.0183439
9980,2.124,28682,21878,14288,22259,0.153192,0.0179065,0.172615
10000,2.156,28679,21876,14286,22260,0.115364,-0.00179739,0.274461
10020,2.152,28673,21872,14280,22255,0.0225743,-0.00811189,0.203251
10040,2.172,28663,21865,14271,22246,-0.0112538,-0.027097,0.0501557
10060,2.174,28653,21858,14261,22234,-0.00635657,-0.0340863,-0.0698339
10080,2.173,28644,21851,14251,22220,-0.0406623,-0.0315626,-0.169478
10100,2.155,28636,21846,14241,22206,-0.0547561,-0.0456314,-0.302567
10120,2.163,28632,21843,14234,22194,-0.0114995,-0.0486769,-0.151814
10140,2.226,28631,21842,14228,22183,-0.0559684,-0.0504393,-0.128859
10160,2.423,28634,21845,14225,22175,-0.0925629,-0.0406856,-0.403788
10180,2.681,28640,21849,14224,22169,-0.0498969,-0.0324559,-0.710831
10200,2.91,28649,21856,14226,22167,-0.0510263,-0.032746,-0.709548
10220,2.98,28659,21863,14228,22167,0.0453243,-0.0267428,-0.402944
10240,2.951,28668,21869,14230,22168,0.103857,-0.0202713,-0.142999
10260,2.796,28675,21873,14231,22168,0.087402,-0.0047056,-0.190564
10280,2.605,28679,21875,14229,22167,0.0071315,-0.00391535,-0.479645
10300,2.397,28677,21872,14224,22163,-0.033393,0.0140907,-0.504751
10320,2.27,28669,21864,14214,22155,0.101965,0.039107,-0.132281
10340,2.188,28654,21850,14199,22142,0.239214,0.0613264,0.23769
10360,2.124,28631,21831,14178,22122,0.279656,0.0779553,0.488085
10380,2.092,28601,21806,14152,22096,0.237661,0.0772291,0.511694
10400,2.074,28564,21775,14121,22065,0.112059,0.0713777,0.533435
10420,2.09,28521,21740,14085,22027,0.0397364,0.0855031,0.55706
10440,2.163,28475,21703,14047,21985,0.0940375,0.090215,0.69149
10460,2.195,28428,21664,14007,21941,0.0865368,0.0793876,0.860552
10480,2.256,28381,21626,13968,21896,0.0664443,0.0544007,1.19514
10500,2.303,28338,21591,13932,21854,-0.110112,0.018721,0.895367
10520,2.324,28300,21561,13901,21817,-0.284866,-0.00540265,0.611257
10540,2.314,28272,21539,13878,21787,-0.267629,-0.00243658,0.486458
10560,2.296,28254,21525,13864,21767,-0.151095,0.00435107,0.467516
10580,2.258,28249,21522,13860,21760,-0.128723,-0.0064291,0.503462
10600,2.23,28257,21530,13869,21767,-0.222219,-0.0213138,0.0400068
10620,2.222,28280,21550,13891,21789,-0.184274,-0.0411331,-0.101286
10640,2.204,28317,21582,13926,21827,-0.319873,-0.069731,-0.471932
10660,2.187,28366,21625,13974,21880,-0.397102,-0.071903,-1.46567
10680,2.181,28427,21677,14032,21946,-0.245365,-0.0890358,-0.903541
10700,2.184,28496,21738,14098,22023,-0.243936,-0.0892134,-0.574631
10720,2.163,28570,21802,14170,22108,-0.20249,-0.0568363,-0.49556
10740,2.152,28645,21868,14245,22195,-0.209694,-0.0400235,-0.619454
10760,2.169,28718,21932,14317,22282,-0.189264,-0.0202953,-0.732351
10780,2.16,28783,21990,14384,22362,-0.0144137,0.0104632,-0.417566
10800,2.167,28838,22040,14442,22432,0.0538768,0.0590096,-0.159636
10820,2.135,28879,22078,14487,22487,0.167502,0.0971315,-0.0210448
10840,2.151,28904,22102,14518,22525,0.240362,0.0918838,0.0273465
10860,2.155,28912,22111,14532,22543,0.20414,0.0754024,0.0135677
10880,2.209,28902,22105,14530,22542,0.21837,0.0519291,0.0947738
10900,2.345,28874,22084,14512,22521,0.16711,0.0347203,0.270269
10920,2.624,28832,22050,14480,22481,0.185466,0.0271224,0.323097
10940,2.861,28777,22006,14436,22427,0.241418,-0.00757895,0.320174
10960,3.032,28714,21954,14384,22361,0.163659,-0.0252286,0.302957
10980,3.024,28646,21898,14326,22288,0.14489,-0.0370324,0.300696
11000,2.894,28578,21841,14267,22213,0.142906,-0.042454,0.27104
11020,2.684,28512,21786,14210,22140,0.141594,-0.0184893,0.339695
11040,2.493,28454,21737,14159,22073,0.140545,0.00189207,0.246247
11060,2.353,28406,21696,14115,22016,0.112269,0.00604458,0.180645
11080,2.276,28369,21664,14080,21970,0.0468984,-0.00708812,-0.00911088
11100,2.235,28344,21641,14056,21939,-0.000706247,-0.0335072,-0.304469
11120,2.233,28333,21629,14043,21921,-0.0205755,-0.0515318,-0.362971
11140,2.194,28334,21626,14040,21918,-0.0374485,-0.0572839,-0.414007
11160,2.177,28345,21630,14046,21927,-0.0416426,-0.0518159,-0.402352
11180,2.214,28365,21641,14058,21947,-0.0550664,-0.0436572,-0.320793
11200,2.267,28390,21656,14076,21974,-0.0398295,-0.0256668,-0.319376
11220,2.314,28418,21672,14096,22006,-0.0157006,0.00318477,-0.204916
11240,2.377,28445,21688,14116,22041,-0.00452182,0.0391575,-0.0715447
11260,2.4,28470,21702,14135,22074,0.000285374,0.0834182,-0.049496
11280,2.38,28490,21712,14150,22103,0.0312144,0.109669,0.0281557
11300,2.351,28503,21716,14160,22126,0.0458701,0.108443,0.101476
11320,2.31,28507,21715,14165,22142,0.0301295,0.0986356,0.169699
11340,2.279,28504,21708,14164,22149,0.00282421,0.0738393,0.253009
11360,2.257,28492,21696,14157,22148,0.0107684,0.0602487,0.347505
11380,2.222,28473,21680,14145,22138,-0.00638848,0.0344793,0.336907
11400,2.215,28448,21660,14129,22120,-0.0246764,0.010556,0.254632
11420,2.197,28420,21638,14111,22097,-0.0434136,-0.00276703,0.290384
11440,2.201,28390,21617,14091,22070,-0.0757648,-0.0177954,0.2598
11460,2.197,28361,21597,14072,22041,-0.0861418,-0.0156866,0.151582
11480,2.198,28336,21580,14056,22014,-0.128395,-0.016713,0.0102914
11500,2.198,28315,21567,14042,21989,-0.162105,-0.017084,-0.234934
11520,2.219,28301,21560,14034,21969,-0.173835,-0.0428561,-0.439576
11540,2.225,28294,21559,14032,21956,-0.117597,-0.0736879,-0.580305
11560,2.235,28296,21564,14035,21951,-0.0673054,-0.0977594,-0.528772
11580,2.254,28305,21574,14044,21954,-0.0680618,-0.0922164,-0.441727
11600,2.25,28320,21588,14057,21963,0.0142363,-0.0693281,-0.297418
11620,2.24,28339,21605,14073,21978,0.026833,-0.039654,-0.311766
11640,2.249,28360,21621,14090,21996,0.0376195,-0.00935234,-0.217078
11660,2.338,28380,21636,14106,22016,0.0563392,0.0240839,-0.0362456
11680,2.591,28396,21647,14119,22034,0.11387,0.0620725,0.271282
11700,2.961,28406,21652,14128,22048,0.137587,0.0900617,0.564541
11720,3.186,28409,21651,14130,22057,0.0674163,0.0986517,0.588445
11740,3.189,28403,21643,14126,22059,0.0344943,0.084267,0.391772
11760,3.183,28389,21628,14115,22053,0.0478928,0.0558722,0.38409
11780,3.063,28367,21607,14098,22041,0.0369873,0.0362352,0.656587
11800,2.845,28339,21582,14077,22023,0.0629024,0.0273479,0.724485
11820,2.656,28308,21555,14053,22001,0.0564086,0.0110784,0.88732
11840,2.493,28276,21529,14030,21977,-0.0550586,-0.00556402,0.818263
11860,2.395,28247,21506,14009,21955,-0.106263,-0.00821163,0.532209
11880,2.353,28225,21489,13993,21936,-0.14734,-0.00138714,0.289549
11900,2.304,28211,21481,13984,21924,-0.0553692,0.0191536,0.567304
11920,2.285,28209,21482,13986,21922,0.0646643,0.0273939,0.71206
11940,2.26,28220,21496,13998,21932,-0.0451154,0.0105043,0.414121
11960,2.268,28245,21521,14022,21954,-0.171868,-0.025872,-0.143273
11980,2.321,28284,21558,14058,21989,-0.165553,-0.0681099,-0.699464
12000,2.37,28336,21606,14105,22038,-0.260328,-0.104595,-1.04431
12020,2.414,28398,21664,14161,22098,-0.248399,-0.144433,-1.5809
12040,2.416,28469,21728,14226,22168,0.0052799,-0.167717,-0.794508
12060,2.387,28545,21796,14295,22245,-0.13932,-0.174143,-0.773319
12080,2.379,28621,21865,14365,22324,-0.155407,-0.132282,-1.02649
12100,2.355,28694,21931,14433,22402,-0.0924232,-0.0783961,-0.945998
12120,2.302,28759,21990,14494,22474,-0.155571,-0.0213631,-1.13602
12140,2.218,28812,22038,14545,22535,0.0658752,0.0214566,-1.17294
12160,2.181,28850,22073,14583,22582,0.131709,0.022788,-1.10538
12180,2.155,28870,22092,14604,22610,0.15215,0.0406004,-0.869054
12200,2.124,28870,22094,14607,22618,0.143764,0.0260757,-0.648522
12220,2.118,28848,22076,14590,22603,0.0705729,0.0412969,-0.196046
12240,2.117,28805,22040,14553,22564,0.209836,0.065984,0.189092
12260,2.173,28740,21985,14497,22501,0.216362,0.0786013,0.415204
12280,2.181,28656,21913,14422,22417,0.261722,0.0923722,0.613018
12300,2.207,28555,21827,14333,22313,0.42046,0.0945728,0.970664
12320,2.195,28442,21730,14231,22194,0.529469,0.102106,1.01252
12340,2.197,28320,21627,14123,22065,0.522669,0.090575,0.880332
12360,2.2,28196,21521,14011,21931,0.420596,0.108557,1.30132
12380,2.176,28074,21417,13902,21798,0.323075,0.101117,1.20525
12400,2.166,27960,21320,13800,21672,0.28989,0.0623764,1.14785
12420,2.264,27860,21235,13710,21560,0.274765,0.0157984,0.967154
12440,2.502,27778,21165,13636,21466,0.0724391,-0.0367095,0.879739
12460,2.84,27719,21114,13582,21395,-0.150777,-0.0612024,0.885782
12480,3.122,27686,21084,13550,21351,-0.253971,-0.036979,0.864778
12500,3.193,27680,21076,13542,21336,-0.329104,0.00105229,0.785676
12520,3.183,27701,21090,13557,21351,-0.282267,0.0306263,0.484666
12540,3.091,27748,21126,13595,21394,-0.271316,0.0196123,-0.261314
12560,2.901,27819,21181,13654,21465,-0.38952,-0.0158795,-0.831753
12580,2.681,27911,21253,13731,21561,-0.452042,-0.0307807,-0.599651
12600,2.538,28019,21338,13823,21677,-0.672486,-0.0804143,-1.54684
12620,2.437,28139,21433,13926,21809,-0.784806,-0.101818,-1.0958
12640,2.409,28264,21534,14035,21950,-0.716747,-0.0988622,-0.802238
12660,2.379,28389,21635,14146,22094,-0.59382,-0.116606,-1.10468
12680,2.321,28508,21732,14253,22235,-0.393913,-0.0733356,-0.78605
12700,2.281,28616,21821,14351,22366,-0.287193,-0.00385742,-0.849074
12720,2.244,28708,21898,14437,22482,-0.111844,0.0633813,-0.502379
12740,2.223,28780,21960,14508,22577,0.0770989,0.113067,-0.165695
12760,2.249,28829,22005,14559,22648,0.126898,0.147557,-0.0732273
12780,2.276,28855,22031,14590,22692,0.268983,0.138282,-0.293798
12800,2.299,28855,22037,14600,22707,0.452296,0.115265,0.187099
12820,2.356,28831,22025,14589,22694,0.364937,0.0948836,0.465246
12840,2.373,28786,21994,14558,22654,0.332669,0.0741856,0.492384
12860,2.341,28723,21949,14510,22592,0.453097,0.0269339,0.553913
12880,2.307,28647,21893,14450,22512,0.323761,-0.0321824,0.635499
12900,2.254,28562,21830,14381,22419,0.336987,-0.0745737,0.812574
12920,2.204,28475,21763,14308,22319,0.393347,-0.0668419,0.703244
12940,2.173,28391,21698,14236,22219,0.452863,-0.027347,0.739535
12960,2.145,28316,21639,14168,22124,0.514855,-0.00550524,0.536655
12980,2.123,28253,21588,14109,22039,0.351868,0.00417615,0.437495
13000,2.106,28206,21549,14062,21970,0.245086,-0.0387039,0.103629
13020,2.127,28180,21525,14030,21921,0.122329,-0.0710318,-0.0501756
13040,2.132,28174,21515,14014,21892,-0.143924,-0.121031,-1.14147
13060,2.152,28188,21520,14012,21885,-0.114169,-0.163046,-1.16863
13080,2.156,28219,21537,14025,21898,-0.0870387,-0.183232,-0.557126
13100,2.148,28265,21564,14050,21929,-0.176472,-0.157212,-0.631554
13120,2.17,28321,21599,14083,21974,-0.182286,-0.104119,-0.543788
13140,2.172,28383,21637,14122,22028,-0.268453,-0.0528,-0.683025
13160,2.155,28445,21675,14161,22087,-0.182027,0.0159095,-0.526424
13180,2.128,28500,21708,14197,22144,-0.1339,0.071542,-0.373938
13200,2.156,28545,21732,14225,22194,-0.13353,0.121077,-0.345624
13220,2.3,28577,21746,14244,22234,-0.0848807,0.118731,-0.353983
13240,2.573,28591,21748,14250,22259,-0.065194,0.0828972,-0.256916
13260,2.85,28587,21736,14243,22268,0.052325,0.0769327,0.269462
13280,3.032,28565,21712,14223,22259,0.0921944,0.072936,0.53694
13300,3.068,28526,21675,14189,22232,0.13111,0.0892835,0.602246
13320,2.954,28471,21629,14144,22188,0.184054,0.0840331,0.67913
13340,2.759,28405,21575,14091,22130,0.115361,0.0573447,0.554717
13360,2.542,28333,21518,14031,22062,0.112603,0.0629454,0.802214
13380,2.342,28258,21461,13970,21987,0.0727575,0.0703051,0.807732
13400,2.258,28186,21407,13910,21911,-0.0072709,0.0675505,0.509044
13420,2.204,28121,21361,13856,21837,-0.0447676,0.0377411,0.512651
13440,2.177,28068,21324,13810,21772,-0.160553,-0.0195472,0.281709
13460,2.145,28030,21300,13776,21718,-0.212806,-0.0656496,0.174238
13480,2.152,28011,21289,13755,21680,-0.197503,-0.109301,0.192483
13500,2.17,28010,21294,13749,21660,-0.144036,-0.128166,0.0963917
13520,2.193,28029,21312,13758,21659,-0.137152,-0.128004,-0.154648
13540,2.239,28066,21344,13781,21676,-0.188994,-0.110891,-0.225173
13560,2.279,28118,21387,13816,21711,-0.197311,-0.0530727,-0.328038
13580,2.31,28183,21439,13863,21762,-0.17127,-0.0331094,-0.512556
13600,2.318,28257,21496,13917,21826,-0.129287,-0.0187015,-0.390875
13620,2.307,28335,21556,13975,21899,-0.118741,-9.43E-05,-0.357936
13640,2.254,28414,21615,14036,21977,-0.0980653,0.00340494,-0.326023
13660,2.222,28489,21671,14094,22056,-0.062786,0.0117373,-0.283594
13680,2.197,28557,21721,14148,22131,0.0119817,0.0174619,-0.232328
13700,2.179,28614,21763,14195,22201,0.0390276,0.0293339,-0.125623
13720,2.172,28658,21795,14234,22260,0.0661392,0.0360084,-0.063129
13740,2.155,28690,21818,14262,22308,0.123375,0.0442566,0.0440533
13760,2.131,28707,21830,14281,22343,0.122882,0.0445477,0.0820382
13780,2.13,28712,21834,14289,22364,0.151958,0.0475487,0.0740378
13800,2.128,28705,21829,14287,22371,0.152389,0.0581916,0.191642
13820,2.148,28688,21817,14277,22364,0.121572,0.0544549,0.205152
13840,2.151,28664,21800,14260,22346,0.125892,0.0343914,0.201957
13860,2.163,28635,21780,14237,22318,0.0993549,-0.00119345,0.119534
13880,2.152,28604,21758,14211,22282,0.0879989,-0.0506462,0.176607
13900,2.137,28573,21737,14183,22242,0.0325589,-0.0881354,0.245704
13920,2.123,28545,21718,14156,22200,-0.0112214,-0.0983783,0.0697273
13940,2.142,28522,21702,14130,22158,-0.0119139,-0.092684,-0.0144709
13960,2.16,28505,21690,14108,22120,-0.0497964,-0.0774385,-0.109438
13980,2.251,28495,21683,14089,22086,-0.0442482,-0.0777983,-0.14212
14000,2.465,28492,21680,14075,22059,-0.0677339,-0.0753278,-0.150064
14020,2.724,28496,21682,14066,22039,-0.0853376,-0.0648008,-0.232828
14040,2.931,28505,21687,14061,22027,-0.0761202,-0.0549652,-0.283168
14060,3.011,28520,21694,14060,22022,-0.088383,-0.0380628,-0.377506
14080,2.938,28538,21704,14062,22024,0.00171414,-0.0219719,-0.21373
14100,2.78,28557,21713,14067,22032,0.00192233,-0.013467,-0.131925
14120,2.594,28576,21722,14072,22044,0.0298164,-0.00310376,-0.0851151
14140,2.429,28592,21730,14078,22059,0.066151,0.0110219,-0.0309607
14160,2.29,28605,21735,14083,22074,0.0479968,0.0300739,-0.0886609
14180,2.208,28613,21736,14086,22089,0.120816,0.0573598,0.0985152
14200,2.151,28616,21735,14087,22101,0.0992324,0.0623874,0.136668
14220,2.146,28612,21729,14086,22110,0.0983431,0.0720535,0.183291
14240,2.121,28603,21721,14082,22114,0.0930955,0.0695797,0.251774
14260,2.125,28589,21710,14075,22113,0.0470656,0.06788,0.239031
14280,2.158,28571,21697,14066,22107,0.0625297,0.0537737,0.236391
14300,2.228,28549,21683,14055,22096,0.00485066,0.0284354,0.22835
14320,2.278,28527,21668,14043,22081,-0.00739445,0.0178959,0.165419
14340,2.309,28505,21655,14031,22064,-0.00970123,0.004031,0.155957
14360,2.286,28485,21643,14020,22046,-0.094927,-0.00355738,0.041218
14380,2.278,28468,21634,14010,22028,-0.0877762,-0.0145874,-0.0487161
14400,2.246,28455,21628,14003,22011,-0.109754,-0.0278224,-0.0311172
14420,2.24,28448,21626,13998,21998,-0.116357,-0.0219559,-0.122158
14440,2.209,28446,21627,13996,21988,-0.0778593,-0.0224423,-0.0953919
14460,2.18,28448,21631,13998,21982,-0.104902,-0.00742117,-0.123063
14480,2.153,28456,21637,14002,21982,-0.0792697,-0.00127049,-0.148998
14500,2.156,28467,21645,14009,21986,-0.0558517,0.00121246,-0.143981
14520,2.134,28480,21654,14018,21994,-0.00170788,0.0113873,-0.163082
14540,2.132,28494,21663,14028,22006,0.0295917,0.0143051,-0.107153
14560,2.152,28507,21671,14038,22020,0.0241476,0.0270726,-0.0644153
14580,2.165,28518,21677,14048,22036,0.0646801,0.0373266,-0.0445492
14600,2.187,28525,21680,14056,22051,0.0708112,0.0437992,0.0544688
14620,2.2,28529,21681,14063,22065,0.0875525,0.0489249,0.114714
14640,2.19,28528,21678,14068,22077,0.094945,0.0479656,0.131555
14660,2.174,28522,21672,14070,22086,0.0744601,0.0517603,0.117906
14680,2.148,28511,21663,14070,22091,0.0809034,0.046291,0.138802
14700,2.159,28497,21652,14068,22092,0.043824,0.0365213,0.155314
14720,2.258,28481,21640,14064,22091,-0.00852237,0.0240409,0.13804
14740,2.474,28463,21627,14059,22086,-0.0207321,0.00211274,0.1652
14760,2.735,28444,21614,14053,22079,-0.0378704,-0.0104405,0.132758
14780,2.961,28427,21603,14047,22070,-0.0572825,-0.0218148,0.0746652
14800,3.043,28412,21593,14042,22061,-0.0511379,-0.0317872,0.114067
14820,2.968,28400,21585,14037,22052,-0.0976638,-0.0370033,-0.0373528
14840,2.812,28391,21580,14033,22044,-0.0731584,-0.0416506,-0.024794
14860,2.607,28387,21578,14031,22038,-0.10108,-0.0396798,-0.0540593
14880,2.464,28386,21578,14030,22034,-0.116385,-0.0391341,-0.189676
14900,2.383,28389,21580,14031,22033,-0.0857665,-0.0435818,-0.187219
14920,2.342,28396,21585,14034,22035,-0.0616762,-0.0410361,-0.270084
14940,2.304,28404,21591,14038,22040,0.0192478,-0.0324872,-0.214296
14960,2.274,28415,21598,14043,22048,-0.00171224,-0.0261194,-0.2473
14980,2.24,28426,21605,14049,22058,0.0272082,-0.0162784,-0.321791
15000,2.229,28436,21611,14055,22069,0.0680872,-0.0151484,-0.300217
15020,2.251,28444,21616,14060,22080,0.068952,-0.00517352,-0.316757
15040,2.281,28450,21619,14065,22090,0.127128,0.00843193,-0.227727
15060,2.323,28453,21620,14068,22099,0.0953463,0.0130941,-0.149302
15080,2.359,28452,21617,14069,22104,0.0646843,0.0211285,-0.0321285
15100,2.367,28446,21612,14067,22105,0.114978,0.02366,0.031693
15120,2.346,28436,21603,14062,22101,0.106195,0.0404105,0.110754
15140,2.304,28422,21591,14054,22092,0.122518,0.0528237,0.269776
15160,2.274,28404,21576,14042,22078,0.109526,0.0472188,0.26215
15180,2.253,28383,21559,14027,22058,0.0669841,0.0420088,0.286899
15200,2.215,28360,21540,14009,22034,0.0552791,0.030579,0.306028
15220,2.173,28335,21519,13990,22007,0.0147891,0.0176059,0.294953
15240,2.176,28311,21499,13969,21978,-0.0195781,0.00166628,0.311582
15260,2.173,28287,21479,13948,21948,-0.0370916,-0.0168585,0.254827
15280,2.191,28267,21462,13929,21919,-0.0852222,-0.0262756,0.152866
15300,2.209,28249,21447,13912,21894,-0.099546,-0.0368717,0.179723
15320,2.23,28237,21436,13899,21873,-0.150341,-0.0397944,0.030175
15340,2.242,28229,21429,13890,21857,-0.14924,-0.0383706,-0.0539924
15360,2.239,28228,21427,13886,21849,-0.120623,-0.038739,0.0275749
15380,2.219,28232,21430,13888,21848,-0.141595,-0.0276971,-0.0237829
15400,2.25,28242,21437,13896,21855,-0.120185,-0.0163024,-0.101975
15420,2.26,28256,21448,13908,21869,-0.128524,-0.00617726,-0.0660514
15440,2.256,28275,21463,13925,21889,-0.0984081,-0.0013396,-0.116726
15460,2.246,28297,21481,13946,21915,-0.0406115,0.00750204,-0.0936307
15480,2.264,28321,21499,13968,21945,-0.0109772,0.0175142,-0.105338
15500,2.384,28345,21519,13992,21978,0.0441677,0.0219099,0.0087425
15520,2.653,28368,21537,14016,22011,0.0270471,0.0208144,0.0853567
15540,2.983,28389,21554,14039,22042,0.0550146,0.0322146,0.082822
15560,3.192,28407,21569,14059,22072,0.071094,0.0503765,0.137574
15580,3.19,28421,21581,14077,22097,0.068771,0.054996,0.0937134
15600,3.183,28430,21590,14091,22118,0.0955556,0.0492955,0.0847562
15620,3.042,28436,21596,14101,22135,0.0582994,0.0280986,0.0315951
15640,2.811,28438,21600,14108,22146,0.053426,0.013978,0.0130624
15660,2.59,28437,21602,14113,22153,0.0310015,-0.00161735,0.100029
15680,2.458,28433,21602,14114,22156,-0.00243276,-0.00840576,0.0205451
15700,2.38,28428,21601,14113,22155,0.0188293,-0.0112385,0.0836228
15720,2.348,28423,21600,14111,22152,-0.0438719,-0.0213019,-0.0182439
15740,2.293,28419,21599,14109,22147,-0.0466031,-0.0152136,-0.218304
15760,2.281,28415,21599,14106,22142,-0.0404467,-0.0263945,-0.170842
15780,2.251,28414,21600,14103,22137,-0.0512867,-0.0351742,-0.197696
15800,2.236,28415,21602,14102,22133,-0.00892489,-0.0325635,-0.188075
15820,2.257,28418,21605,14100,22130,-0.0267295,-0.0288684,-0.27249
15840,2.307,28422,21608,14099,22128,0.0193576,-0.0165311,-0.285892
15860,2.362,28428,21612,14099,22127,0.0364365,-0.0205373,-0.178971
15880,2.393,28433,21615,14099,22127,0.0561076,-0.0163103,-0.157764
15900,2.393,28438,21616,14099,22126,0.0835366,-0.0161909,-0.145576
15920,2.355,28441,21617,14098,22125,0.0673104,-0.0193705,-0.16506
15940,2.307,28441,21615,14096,22123,0.0965816,-0.0169695,-0.100291
15960,2.257,28439,21611,14093,22118,0.0930187,-0.0116893,0.0341515
15980,2.204,28432,21604,14087,22111,0.0660434,0.00217189,-0.0647081
16000,2.173,28422,21594,14079,22101,0.129338,0.0111876,0.0833129
16020,2.179,28408,21582,14069,22087,0.0968853,0.00730754,0.137962
16040,2.152,28392,21568,14057,22071,0.0790293,0.0049837,0.138995
16060,2.191,28373,21552,14043,22052,0.0222664,0.000545238,0.13538
16080,2.207,28353,21536,14029,22031,-0.0134714,0.00433789,0.0936447
16100,2.186,28332,21519,14013,22008,-0.0189042,0.00611794,0.13666
16120,2.198,28311,21502,13998,21985,-0.0483855,0.00486772,0.121552
16140,2.214,28292,21487,13983,21963,-0.0309092,0.00753759,0.185772
16160,2.208,28276,21474,13970,21942,-0.0698327,-0.00143307,0.121612
16180,2.251,28262,21463,13959,21923,-0.0936107,-0.000703188,0.0362345
16200,2.261,28251,21455,13950,21908,-0.0963399,0.00100837,0.0133094
16220,2.264,28244,21449,13945,21896,-0.126702,0.000980941,-0.0651145
16240,2.236,28240,21447,13942,21889,-0.0988124,0.00631692,-0.0412474
16260,2.23,28240,21447,13943,21885,-0.0833947,-0.00030355,-0.0244245
16280,2.26,28243,21450,13946,21886,-0.057954,0.00583278,0.00263922
16300,2.391,28248,21455,13952,21891,-0.034934,0.0111571,0.00225264
16320,2.679,28254,21462,13960,21900,-0.00551715,0.0255238,-0.067738
16340,3.021,28262,21470,13970,21911,0.00675572,0.0367225,-0.101764
16360,3.179,28271,21478,13980,21925,0.0514854,0.030067,0.000184032
16380,3.187,28280,21487,13991,21939,0.0499219,0.034327,0.0470364
16400,3.166,28288,21495,14001,21954,0.0464477,0.0304057,0.0388135
16420,2.992,28294,21502,14010,21968,0.0511529,0.0321565,0.0585129
16440,2.747,28300,21508,14018,21981,0.0485942,0.0293106,0.0615508
16460,2.566,28303,21512,14024,21992,0.0808471,0.0301313,0.141742
16480,2.422,28305,21515,14028,22001,0.0642638,0.0346042,0.115907
16500,2.363,28305,21517,14030,22007,0.026442,0.0260736,0.179055
16520,2.325,28304,21517,14031,22011,-0.0465469,0.0176919,0.155885
16540,2.268,28303,21516,14030,22012,-0.0586756,0.0130903,0.0812417
16560,2.216,28300,21515,14029,22011,-0.0566705,0.0108283,0.0906201
16580,2.223,28298,21514,14027,22009,-0.0625877,0.0118234,0.127806
16600,2.219,28296,21514,14025,22006,-0.0427777,0.00759482,0.154992
16620,2.26,28296,21514,14024,22003,-0.0848919,0.00499103,0.122864
16640,2.33,28297,21516,14023,22001,-0.114814,-0.00116004,0.0706299
16660,2.383,28300,21519,14023,22000,-0.0998576,-0.00830184,0.0394229
16680,2.387,28306,21523,14025,22001,-0.100306,-0.009197,0.006497
16700,2.366,28314,21529,14028,22005,-0.0876095,-0.0103938,-0.0741222
16720,2.348,28324,21536,14034,22011,-0.0679283,-0.0160162,-0.0924905
16740,2.31,28336,21545,14040,22020,-0.046776,-0.0182905,-0.0608962
16760,2.285,28350,21555,14049,22032,-0.0408581,-0.0268927,-0.148327
16780,2.228,28366,21565,14059,22046,0.0136491,-0.0292385,-0.27922
16800,2.19,28382,21576,14069,22062,0.0495857,-0.0274199,-0.300638
16820,2.152,28398,21587,14080,22080,0.0588021,-0.0238772,-0.226876
16840,2.138,28413,21597,14092,22097,0.0897469,-0.0152153,-0.238535
16860,2.137,28428,21606,14102,22114,0.0961924,-0.0102556,-0.17783
16880,2.139,28440,21614,14112,22129,0.115607,-0.00302573,-0.151282
16900,2.117,28449,21619,14119,22142,0.139702,0.00340982,-0.115274
16920,2.114,28455,21622,14124,22150,0.121887,0.00530553,-0.0554875
16940,2.12,28457,21623,14126,22155,0.10568,0.0124812,-0.0849459
16960,2.149,28455,21620,14126,22155,0.129075,0.017787,0.0209121
16980,2.166,28449,21615,14122,22149,0.0983452,0.0120977,0.0615249
17000,2.152,28439,21607,14114,22139,0.0578844,0.0128929,-0.00223994
17020,2.149,28426,21596,14104,22124,0.038824,0.0012192,0.0717644
17040,2.148,28410,21583,14091,22104,-0.00624847,-0.00318162,0.113628
17060,2.142,28391,21569,14076,22081,-0.0378817,-0.00754182,0.0639196
17080,2.146,28372,21553,14059,22055,-0.0443315,-0.00863041,0.0532426
17100,2.239,28351,21538,14043,22028,-0.0589922,-0.0133022,0.0751115
17120,2.409,28331,21523,14026,22001,-0.0780392,-0.0220626,0.0464675
17140,2.713,28313,21509,14010,21976,-0.0868413,-0.0195166,0.0248922
17160,2.971,28296,21496,13996,21953,-0.0849158,-0.0126169,0.099562
17180,3.094,28282,21486,13985,21933,-0.0817908,-0.00626851,0.120235
17200,3.041,28270,21478,13976,21918,-0.0745802,0.00775791,0.0987038
17220,2.87,28262,21473,13970,21907,-0.0560034,0.0138443,0.174117
17240,2.674,28257,21470,13967,21901,-0.0656983,0.0138995,0.0883589
17260,2.485,28255,21470,13968,21901,-0.0488761,0.0119609,0.110747
17280,2.358,28256,21473,13971,21905,-0.0536522,0.0164348,0.0818995
17300,2.274,28260,21477,13976,21914,-0.0408707,0.0187991,-0.0408713
17320,2.242,28266,21484,13984,21927,0.000225961,0.0103108,0.0319967
17340,2.221,28274,21492,13994,21944,-6.82E-05,0.00573403,-0.0890193
17360,2.179,28285,21501,14005,21963,0.0406656,0.00659982,-0.133018
17380,2.152,28297,21511,14017,21984,0.0325641,0.00579441,-0.202079
17400,2.16,28310,21522,14029,22006,0.0364785,0.00374236,-0.275126
17420,2.167,28324,21533,14041,22028,0.056997,-0.00174352,-0.221993
17440,2.226,28338,21544,14053,22049,0.0673797,-0.00124828,-0.171697
17460,2.263,28352,21555,14064,22069,0.120496,0.0059141,-0.0336429
17480,2.251,28365,21564,14073,22085,0.0871681,0.0109763,-0.0460826
17500,2.276,28376,21572,14080,22098,0.080197,0.0256642,-0.142142
17520,2.249,28386,21578,14085,22107,0.0855581,0.0258013,-0.112274
17540,2.229,28392,21581,14087,22110,0.062075,0.0211132,-0.129966
17560,2.187,28395,21582,14085,22108,0.0871794,0.0128745,0.0273325
17580,2.142,28394,21580,14081,22101,0.0035148,-0.00408566,-0.0301318
17600,2.124,28390,21575,14074,22089,-0.0164898,-0.00606663,-0.0817292
17620,2.102,28381,21566,14063,22071,-0.026482,-0.0161385,0.0741266
17640,2.117,28370,21556,14051,22050,-0.0461441,-0.0159513,0.069325
17660,2.102,28355,21543,14036,22026,-0.0240741,-0.0104457,0.196768
17680,2.114,28339,21529,14020,21999,-0.0630174,-0.0130492,0.15199
17700,2.086,28321,21513,14003,21972,-0.0760473,-0.00528271,0.132299
17720,2.117,28303,21498,13986,21946,-0.0869726,-0.00460416,0.187407
17740,2.138,28286,21483,13971,21921,-0.0950101,0.00560461,0.185715
17760,2.153,28270,21470,13957,21899,-0.0726825,0.0137992,0.251381
17780,2.165,28256,21458,13946,21881,-0.0782839,0.0120086,0.266388
17800,2.174,28245,21449,13937,21868,-0.0663917,0.0153878,0.272199
17820,2.18,28238,21443,13932,21861,-0.0776917,0.00296477,0.262563
17840,2.159,28234,21440,13931,21859,-0.0817755,-0.00689995,0.280099
17860,2.159,28235,21441,13933,21863,-0.0755405,-0.0130858,0.216196
17880,2.174,28240,21446,13940,21873,-0.084782,-0.0137628,0.150173
17900,2.237,28249,21454,13951,21888,-0.0658818,-0.000612883,0.141595
17920,2.428,28262,21465,13965,21909,-0.0634099,-0.00408302,0.0412574
17940,2.714,28279,21480,13983,21935,-0.0714498,-0.00513797,-0.070536
17960,2.964,28301,21497,14003,21964,-0.0566029,-0.0159717,-0.147355
17980,3.087,28325,21517,14026,21996,-0.0258724,-0.0269275,-0.217863
18000,3.042,28352,21539,14050,22030,0.0245944,-0.0224264,-0.254126
18020,2.868,28380,21562,14075,22064,0.0406477,-0.0236427,-0.3113
18040,2.67,28410,21586,14099,22099,0.0634566,-0.0292731,-0.279589
18060,2.475,28439,21609,14123,22132,0.0784023,-0.0331085,-0.336285
18080,2.318,28467,21632,14144,22162,0.079726,-0.0279457,-0.394005
18100,2.247,28492,21651,14163,22188,0.12742,-0.0232237,-0.297263
18120,2.18,28513,21668,14178,22209,0.152585,-0.0206214,-0.224449
18140,2.138,28529,21681,14188,22225,0.181281,-0.0105282,-0.0651794
18160,2.111,28539,21689,14194,22233,0.140768,-0.00756812,-0.0526933
18180,2.134,28542,21693,14193,22234,0.109709,0.00380587,-0.0611341
18200,2.152,28539,21690,14187,22227,0.130248,0.0139568,0.000291295
18220,2.158,28530,21683,14176,22213,0.145015,0.0124701,0.10671
18240,2.198,28514,21670,14159,22192,0.0874706,0.0153055,0.149092
18260,2.236,28492,21653,14138,22165,0.0178305,0.00555199,0.16432
18280,2.279,28466,21632,14114,22133,-0.000438262,-0.00573073,0.193221
18300,2.286,28438,21609,14088,22098,-0.0241603,-0.00766464,0.149249
18320,2.27,28407,21584,14060,22061,-0.0397571,-0.00329158,0.172555
18340,2.221,28377,21560,14033,22025,-0.0434752,-0.00328092,0.222966
18360,2.187,28349,21536,14008,21990,-0.0812368,-0.00568926,0.131358
18380,2.159,28324,21516,13986,21959,-0.127075,-0.0103972,0.0206353
18400,2.151,28303,21498,13968,21934,-0.152008,-0.0156077,-0.0892767
18420,2.144,28288,21485,13954,21915,-0.14684,-0.0163551,-0.13131
18440,2.124,28279,21477,13946,21903,-0.114964,-0.0167727,-0.165988
18460,2.141,28275,21474,13944,21898,-0.069558,-0.0151598,-0.183052
18480,2.148,28278,21475,13946,21901,-0.0319697,-0.0135401,-0.148377
18500,2.135,28285,21481,13953,21911,-0.0462357,-0.00777982,-0.271165
18520,2.141,28297,21490,13964,21926,-0.0236323,-0.0058309,-0.374513
18540,2.138,28311,21502,13978,21944,0.0217933,-0.00680239,-0.340911
18560,2.156,28327,21514,13992,21965,0.0693644,-0.00086567,-0.23755
18580,2.165,28344,21527,14007,21987,0.147482,0.0113984,-0.00704883
18600,2.165,28359,21539,14020,22006,0.10427,0.0232645,-0.0360779
18620,2.17,28371,21549,14031,22022,0.0908175,0.030235,-0.0467906
18640,2.135,28380,21556,14038,22034,0.108225,0.0469882,0.0979414
18660,2.144,28385,21559,14041,22039,0.150607,0.0496391,0.11924
18680,2.144,28385,21558,14039,22038,0.188063,0.04716,0.206522
18700,2.216,28380,21554,14033,22031,0.137657,0.0370863,0.304074
18720,2.404,28372,21546,14023,22018,0.0357146,0.0277961,0.310943
18740,2.7,28360,21536,14009,21999,-0.0161325,0.0203595,0.256612
18760,3.028,28345,21523,13993,21976,-0.0196458,0.016856,0.268306
18780,3.182,28330,21509,13975,21951,-0.0769336,0.0105649,0.307785
18800,3.187,28314,21496,13957,21925,-0.0871345,0.000187826,0.262173
18820,3.131,28301,21484,13940,21901,-0.148285,-0.010373,0.177231
18840,2.94,28290,21474,13926,21880,-0.206112,-0.0259403,0.11088
18860,2.724,28283,21467,13915,21864,-0.205113,-0.0280413,0.0199476
18880,2.523,28282,21465,13908,21853,-0.198832,-0.0300767,-0.108965
18900,2.383,28285,21467,13906,21849,-0.176537,-0.0403917,-0.197899
18920,2.309,28295,21474,13909,21853,-0.173267,-0.0418717,-0.266193
18940,2.263,28310,21485,13917,21864,-0.164342,-0.0458334,-0.268689
18960,2.225,28330,21501,13929,21881,-0.116445,-0.0472187,-0.334345
18980,2.226,28354,21520,13945,21905,-0.0614898,-0.0430326,-0.2168
19000,2.23,28380,21540,13963,21931,-0.038201,-0.0286417,-0.169479
19020,2.253,28406,21562,13983,21960,0.0295183,-0.00555696,-0.102393
19040,2.299,28432,21583,14002,21988,0.0710098,0.0158879,-0.000512976
19060,2.351,28454,21602,14020,22015,0.125031,0.0294259,0.190494
19080,2.391,28473,21618,14035,22037,0.154494,0.0408379,0.304874
19100,2.363,28487,21630,14047,22055,0.128948,0.0398893,0.365659
19120,2.348,28494,21638,14054,22066,0.0876489,0.0347362,0.273103
19140,2.321,28496,21641,14058,22072,0.0771796,0.0213367,0.305204
19160,2.297,28493,21641,14058,22071,0.0455924,0.0127072,0.349029
19180,2.233,28486,21638,14055,22066,0.0534912,0.000373876,0.432144
19200,2.222,28476,21633,14049,22057,0.0454928,-0.00876442,0.561705
19220,2.215,28466,21628,14043,22046,-0.0398128,-0.0264894,0.452252
19240,2.211,28457,21623,14037,22035,-0.0795692,-0.0363727,0.353411
19260,2.188,28451,21621,14033,22025,-0.134287,-0.036069,0.223538
19280,2.221,28450,21622,14032,22019,-0.0922101,-0.0293275,0.0881313
19300,2.218,28454,21628,14036,22018,0.0275399,-0.0313441,0.274652
19320,2.216,28466,21639,14044,22024,-0.0607989,-0.0420665,0.110885
19340,2.225,28485,21656,14058,22036,-0.0797173,-0.0523695,0.00932012
19360,2.251,28511,21678,14078,22056,-0.0842726,-0.0684358,-0.337739
19380,2.282,28544,21705,14103,22084,-0.0872802,-0.0689844,-0.236908
19400,2.293,28582,21736,14133,22118,-0.161573,-0.0746497,-0.996484
19420,2.279,28624,21770,14167,22157,-0.0616646,-0.0888324,-0.805
19440,2.283,28667,21806,14204,22200,-0.0149858,-0.0991922,-0.386836
19460,2.268,28710,21841,14241,22245,-0.122572,-0.0838859,-1.00951
19480,2.282,28750,21874,14278,22288,-0.0271209,-0.0568155,-0.920393
19500,2.421,28785,21903,14310,22328,0.00519367,-0.0424684,-0.720783
19520,2.702,28812,21926,14338,22362,0.113509,-0.00309184,-0.555403
19540,2.999,28829,21942,14357,22387,0.136883,0.0148431,-0.738324
19560,3.155,28835,21948,14367,22401,0.113882,0.0315998,-0.6672
19580,3.161,28828,21943,14366,22402,0.110252,0.0317624,-0.429877
19600,3.038,28808,21927,14353,22389,0.11589,0.0391413,-0.158222
19620,2.811,28773,21900,14328,22361,0.20091,0.0590738,0.158166
19640,2.591,28725,21862,14290,22318,0.214587,0.0781195,0.468545
19660,2.409,28663,21813,14240,22261,0.263776,0.0980139,0.565585
19680,2.281,28591,21754,14180,22191,0.330228,0.109061,0.748809
19700,2.214,28510,21689,14112,22111,0.393847,0.0920377,0.773698
19720,2.158,28423,21619,14039,22024,0.378638,0.0909538,1.23009
19740,2.146,28334,21547,13964,21934,0.223762,0.0920726,1.30645
19760,2.134,28248,21476,13891,21846,0.193922,0.0680411,0.952098
19780,2.186,28168,21410,13822,21763,0.118147,0.0530435,1.03028
19800,2.235,28098,21353,13762,21691,-0.00369311,0.0158886,0.858914
19820,2.356,28043,21306,13715,21634,-0.0872701,-0.0108441,0.695419
19840,2.415,28006,21274,13684,21596,-0.265556,-0.0560939,0.214841
19860,2.456,27988,21258,13670,21579,-0.217358,-0.0743273,-0.115664
19880,2.443,27993,21259,13675,21585,-0.204505,-0.106742,-0.246807
19900,2.418,28019,21278,13699,21615,-0.48712,-0.117534,-1.60085
19920,2.376,28065,21314,13741,21667,-0.31513,-0.114174,-1.22189
19940,2.338,28130,21364,13799,21740,-0.301416,-0.131826,-1.14784
19960,2.29,28209,21427,13870,21829,-0.323732,-0.0943324,-1.21881
19980,2.223,28297,21497,13950,21928,-0.243081,-0.0815136,-1.32155
20000,2.172,28388,21571,14033,22032,-0.412398,-0.0899981,-2.03294
20020,2.173,28476,21642,14113,22133,-0.242734,-0.066516,-1.79109
20040,2.148,28555,21706,14185,22225,0.0339548,-0.0490945,-1.05324
20060,2.134,28617,21757,14243,22300,0.14883,0.0136243,-0.10182
20080,2.121,28657,21790,14283,22353,0.23981,0.0763868,0.483195
20100,2.113,28671,21802,14299,22376,0.128348,0.146087,0.617148
20120,2.132,28656,21789,14289,22368,0.193036,0.170853,0.842775
20140,2.177,28610,21752,14252,22326,0.208427,0.158069,0.909395
20160,2.221,28535,21691,14190,22253,0.297011,0.182645,1.38444
20180,2.24,28435,21608,14105,22151,0.360929,0.188689,1.694
20200,2.258,28314,21510,14003,22026,0.225049,0.116015,1.28123
20220,2.249,28181,21400,13889,21885,0.222467,0.0598171,1.32799
20240,2.265,28043,21287,13771,21738,0.0567412,0.00963398,1.42662
20260,2.265,27910,21179,13658,21594,0.123785,0.0116962,1.59665
20280,2.348,27791,21082,13557,21464,0.124111,0.0147766,1.46376
20300,2.572,27694,21004,13475,21356,-0.0442367,-0.0333629,1.11055
20320,2.903,27628,20952,13420,21278,-0.219901,-0.0436954,0.287896
20340,3.172,27598,20930,13396,21237,-0.279085,-0.0839983,-0.216683
20360,3.19,27606,20940,13406,21237,-0.265389,-0.117301,-0.444475
20380,3.183,27654,20982,13449,21278,-0.281925,-0.14233,-1.21216
20400,3.178,27738,21055,13525,21360,-0.211494,-0.134131,-0.579355
20420,3.01,27855,21154,13628,21477,-0.299804,-0.110001,-0.977933
20440,2.766,28002,21278,13757,21627,-0.270308,-0.100286,-1.25279
20460,2.568,28166,21414,13900,21798,-0.230231,-0.102808,-1.11453
20480,2.461,28336,21555,14048,21979,-0.204326,-0.0839074,-1.29739
20500,2.366,28504,21693,14194,22160,-0.104416,-0.0432222,-1.20802
20520,2.306,28658,21820,14328,22330,-0.129223,-0.00416336,-1.017
20540,2.221,28792,21928,14443,22480,-0.0683429,0.0396192,-0.750844
20560,2.176,28897,22012,14533,22602,0.0125522,0.0383074,-0.695653
20580,2.181,28969,22068,14594,22690,0.0771978,0.048157,-0.420221
20600,2.198,29000,22090,14620,22736,0.225548,0.0555739,-0.075663
20620,2.226,28996,22083,14615,22743,0.250185,0.0722727,0.0848744
20640,2.246,28957,22048,14580,22712,0.208549,0.10414,0.227124
20660,2.279,28888,21988,14517,22646,0.173393,0.105291,0.361471
20680,2.286,28793,21908,14433,22550,0.18283,0.0773202,0.427412
20700,2.263,28680,21813,14332,22431,0.188054,0.0441812,0.561376
20720,2.247,28554,21709,14220,22295,0.221976,0.0408994,0.979964
20740,2.181,28424,21602,14104,22150,0.156596,0.0441306,0.964682
20760,2.149,28296,21498,13990,22004,0.109971,0.035164,0.881346
20780,2.146,28177,21401,13883,21864,0.11728,0.0131014,0.917336
20800,2.137,28072,21316,13789,21738,0.10901,-0.0101273,0.905024
20820,2.123,27987,21248,13711,21631,0.109168,-0.032846,0.792734
20840,2.125,27925,21198,13653,21547,0.0194833,-0.0406177,0.483409
20860,2.142,27887,21167,13617,21491,-0.072466,-0.0436617,0.186557
20880,2.181,27874,21157,13603,21463,-0.108568,-0.0554405,-0.0527592
20900,2.167,27886,21167,13611,21465,-0.158157,-0.0629382,-0.0369549
20920,2.176,27922,21196,13641,21496,-0.227306,-0.0830375,-0.699471
20940,2.188,27979,21241,13690,21552,-0.14258,-0.0999586,-0.777542
20960,2.225,28052,21299,13754,21631,-0.101144,-0.102844,-0.531974
20980,2.223,28138,21366,13830,21727,-0.135203,-0.0648229,-0.777396
21000,2.209,28231,21440,13914,21836,-0.0698082,-0.0045853,-0.586881
21020,2.191,28326,21514,14000,21949,-0.116658,0.0239786,-0.712097
21040,2.172,28417,21586,14084,22063,-0.0454293,0.0576788,-0.609413
21060,2.19,28501,21652,14162,22170,0.0447341,0.075039,-0.448029
21080,2.302,28572,21707,14229,22265,0.0628406,0.0912821,-0.387215
21100,2.545,28628,21750,14283,22344,0.129137,0.0964547,-0.343035
21120,2.829,28665,21779,14320,22402,0.156213,0.0787615,-0.231751
21140,3.028,28682,21791,14340,22437,0.147269,0.0671075,0.0122037
21160,3.064,28680,21788,14341,22448,0.13603,0.0586966,0.164599
21180,2.954,28658,21770,14324,22435,0.152911,0.0676457,0.201813
21200,2.756,28619,21738,14290,22399,0.181171,0.0352926,0.261086
21220,2.57,28566,21695,14243,22344,0.16651,0.00875606,0.29517
21240,2.367,28502,21644,14185,22273,0.134439,0.0131232,0.29753
21260,2.27,28431,21588,14120,22190,0.127629,0.00191206,0.388073
21280,2.202,28357,21531,14051,22101,0.102332,0.000494024,0.394626
21300,2.159,28285,21475,13982,22009,0.0523808,-0.0120394,0.367745
21320,2.13,28219,21424,13917,21919,0.0107609,-0.0422092,0.299266
21340,2.117,28160,21380,13859,21837,-0.0126691,-0.0585796,0.152627
21360,2.131,28113,21344,13810,21765,-0.0261999,-0.0791424,0.152197
21380,2.17,28079,21318,13771,21706,-0.0596184,-0.0978148,0.116272
21400,2.228,28057,21302,13744,21662,-0.0912532,-0.100232,0.0401236
21420,2.254,28049,21295,13729,21634,-0.154564,-0.0938936,-0.0166591
21440,2.283,28054,21298,13725,21622,-0.167842,-0.0683509,-0.135962
21460,2.285,28069,21308,13732,21625,-0.147103,-0.0425932,-0.165286
21480,2.3,28094,21324,13747,21641,-0.127665,-0.0120287,-0.165936
21500,2.292,28125,21344,13769,21670,-0.0905669,0.0185981,-0.138215
21520,2.276,28160,21367,13796,21707,-0.0994825,0.0417381,-0.069695
21540,2.225,28196,21390,13827,21750,-0.126946,0.0525438,-0.0586719
21560,2.18,28232,21413,13859,21797,-0.0567604,0.0638346,0.0221688
21580,2.145,28266,21434,13890,21845,-0.0159517,0.0779769,0.08949
21600,2.145,28295,21453,13919,21891,-0.00545269,0.0857342,0.0827899
21620,2.135,28319,21468,13945,21932,0.0425034,0.0709474,0.151954
21640,2.141,28336,21479,13967,21968,0.0151761,0.0467874,0.0671091
21660,2.135,28348,21487,13985,21996,0.0224135,0.0252888,-0.00501677
21680,2.156,28354,21491,13998,22017,0.0296084,0.0146981,-0.00717243
21700,2.176,28355,21494,14007,22029,0.0302432,0.0015382,-0.0721376
21720,2.158,28353,21494,14012,22034,0.0764004,-0.0132022,-0.0309653
21740,2.181,28347,21493,14014,22032,0.0609945,-0.0241314,-0.0900119
21760,2.197,28340,21491,14013,22024,0.0510144,-0.0365537,-0.187061
21780,2.172,28332,21490,14010,22012,0.0457877,-0.0496176,-0.222869
21800,2.153,28324,21489,14006,21997,0.0362587,-0.04989,-0.196628
21820,2.124,28318,21489,14001,21980,0.06181,-0.043209,-0.0941678
21840,2.139,28313,21489,13995,21962,0.0363544,-0.0284885,-0.0836653
21860,2.31,28309,21490,13989,21945,0.0386955,-0.0156473,-0.00834316
21880,2.568,28306,21491,13982,21928,0.0117897,-0.0108014,0.0207944
21900,2.845,28304,21490,13974,21912,-0.0188103,0.00353965,-0.00341075
21920,3.018,28302,21488,13966,21898,-0.0363422,0.0122944,0.0763366
21940,3.036,28298,21484,13956,21885,-0.0584969,0.0181577,0.170844
21960,2.945,28294,21478,13944,21873,-0.0459408,0.0233906,0.245335
21980,2.766,28288,21469,13932,21862,-0.0760104,0.0218612,0.261441
22000,2.561,28280,21458,13919,21852,-0.0801685,0.032426,0.28718
22020,2.401,28270,21446,13906,21844,-0.0783624,0.0430971,0.334438
22040,2.316,28260,21433,13893,21837,-0.0844192,0.0507353,0.318865
22060,2.253,28250,21420,13881,21832,-0.0835256,0.0510632,0.299818
22080,2.209,28241,21409,13871,21830,-0.104701,0.0409507,0.24316
22100,2.187,28235,21401,13865,21831,-0.118862,0.030408,0.118155
22120,2.173,28232,21396,13863,21836,-0.106877,0.0147963,0.00445327
22140,2.183,28234,21397,13866,21845,-0.110652,-8.78E-07,-0.0876027
22160,2.191,28241,21403,13873,21858,-0.0908089,-0.0149848,-0.1376
22180,2.24,28254,21414,13886,21876,-0.0517516,-0.026003,-0.171794
22200,2.285,28273,21431,13903,21898,-0.0328373,-0.0257705,-0.302032
22220,2.316,28297,21452,13924,21924,-0.00504021,-0.0302017,-0.344722
22240,2.303,28325,21477,13949,21953,0.0248371,-0.0278884,-0.285424
22260,2.285,28357,21505,13975,21983,0.0738028,-0.0164272,-0.207028
22280,2.244,28389,21534,14002,22013,0.104675,0.00296841,-0.148052
22300,2.222,28421,21561,14027,22041,0.137098,0.0189324,-0.056569
22320,2.187,28451,21587,14050,22066,0.137605,0.0245011,-0.058485
22340,2.148,28477,21609,14069,22086,0.131256,0.0244967,-0.0428077
22360,2.132,28498,21627,14083,22100,0.126815,0.0195773,-0.0475568
22380,2.135,28512,21639,14093,22108,0.119954,0.00478232,-0.095042
22400,2.13,28519,21645,14096,22109,0.121803,-0.0114531,-0.0498184
22420,2.123,28519,21645,14094,22104,0.080922,-0.0257055,0.0138259
22440,2.134,28512,21641,14087,22092,0.033066,-0.033539,0.0854559
22460,2.149,28499,21631,14075,22074,-0.00038042,-0.0334296,0.082292
22480,2.153,28482,21618,14060,22052,-0.0211523,-0.0241313,0.0821968
22500,2.209,28461,21602,14043,22027,-0.0301808,-0.0103924,0.0712703
22520,2.24,28439,21585,14025,22000,-0.0373688,0.00226869,0.0541736
22540,2.225,28416,21568,14007,21974,-0.0448471,0.00946579,0.108955
22560,2.214,28395,21552,13989,21948,-0.072714,0.00984612,0.0902324
22580,2.228,28377,21538,13974,21926,-0.0808697,0.00910053,0.119471
22600,2.246,28362,21527,13962,21908,-0.0841109,0.0068923,0.113169
22620,2.358,28351,21519,13952,21894,-0.0887264,-0.00142802,0.0291071
22640,2.624,28345,21514,13946,21885,-0.0701251,-0.00905358,0.0452091
22660,2.931,28343,21513,13943,21882,-0.0655815,-0.0217614,0.00924199
22680,3.169,28346,21515,13943,21884,-0.0611782,-0.0250109,-0.0125617
22700,3.179,28353,21520,13947,21890,-0.052314,-0.0232549,-0.0226605
22720,3.136,28363,21528,13952,21902,-0.0186228,-0.0125591,-0.0905246
22740,2.962,28377,21538,13960,21916,0.0510137,-0.000094185,-0.0901672
22760,2.745,28392,21550,13969,21934,0.0517211,0.0132246,-0.115858
22780,2.556,28409,21563,13980,21953,0.0550076,0.0143737,-0.129478
22800,2.418,28426,21576,13990,21974,0.0710501,0.00937916,-0.143291
22820,2.323,28444,21590,14001,21994,0.0740281,0.00129168,-0.114647
22840,2.279,28461,21603,14011,22013,0.11651,-0.00259767,-0.0204064
22860,2.242,28476,21615,14020,22030,0.113117,0.000466072,-0.0255788
22880,2.198,28490,21626,14027,22043,0.141297,0.00919082,0.146473
22900,2.191,28501,21635,14032,22054,0.144802,0.0145429,0.251616
22920,2.23,28510,21643,14035,22060,0.0602314,0.0275061,0.193219
22940,2.283,28515,21648,14035,22062,0.0068314,0.0308252,0.0981097
22960,2.341,28518,21651,14034,22061,-0.00338984,0.0241841,0.0542078
22980,2.386,28519,21652,14030,22056,-0.0507064,0.0206439,0.00352991
23000,2.409,28517,21652,14025,22048,-0.0756399,0.00314262,-0.116291
23020,2.4,28514,21651,14019,22038,-0.131143,-0.0161664,-0.398882
23040,2.377,28511,21648,14012,22027,-0.101175,-0.0358087,-0.338047
23060,2.341,28507,21646,14006,22015,-0.0240218,-0.0481465,-0.170622
23080,2.288,28504,21644,14000,22004,-0.0403554,-0.0397806,-0.235969
23100,2.253,28502,21641,13994,21994,-0.0456284,-0.0226526,-0.33259
23120,2.246,28500,21640,13989,21986,-0.00534546,-0.00838322,-0.318267
23140,2.233,28500,21638,13985,21978,0.0624828,0.0197639,-0.114302
23160,2.202,28499,21636,13981,21972,0.124831,0.0432643,0.184119
23180,2.201,28498,21634,13977,21965,0.142218,0.073191,0.327333
23200,2.195,28496,21630,13972,21958,0.10088,0.0855474,0.264515
23220,2.204,28492,21625,13966,21950,0.0427477,0.0728585,0.290152
23240,2.218,28485,21617,13959,21940,0.0404729,0.061031,0.392561
23260,2.233,28476,21608,13950,21928,0.020851,0.0391718,0.232487
23280,2.258,28465,21597,13939,21916,0.0120639,0.0112643,0.19188
23300,2.242,28452,21584,13928,21902,0.0154167,-0.0139595,0.30225
23320,2.247,28438,21571,13917,21888,-0.0856443,-0.0361891,0.17116
23340,2.276,28424,21558,13907,21875,-0.103888,-0.0283276,0.149897
23360,2.408,28412,21547,13898,21864,-0.124268,-0.021599,0.101582
23380,2.638,28403,21539,13892,21856,-0.156662,-0.00819563,-0.118603
23400,2.933,28399,21535,13890,21853,-0.109233,-0.00295646,-0.0786208
23420,3.137,28400,21535,13893,21856,-0.106667,-0.000882684,-0.0238253
23440,3.168,28406,21540,13900,21865,-0.0966327,-0.000388881,-0.111145
23460,3.082,28418,21550,13912,21879,-0.0651957,-0.0109173,-0.00818699
23480,2.901,28435,21564,13927,21899,-0.037526,-0.00559635,0.0646741
23500,2.693,28455,21581,13945,21922,-0.013225,0.00912826,0.0105548
23520,2.517,28477,21600,13965,21949,-0.00885434,0.00967763,-0.087629
23540,2.388,28500,21619,13985,21976,0.0395533,0.00643252,-0.122411
23560,2.313,28522,21638,14004,22004,0.0583618,-0.00978475,-0.0712211
23580,2.257,28541,21655,14022,22030,0.0220518,-0.0125863,-0.194041
23600,2.24,28557,21670,14038,22053,0.0102684,-0.00415559,-0.35682
23620,2.207,28569,21681,14050,22072,0.0213701,-0.00466258,-0.366574
23640,2.218,28575,21688,14059,22087,0.081406,-0.00214455,-0.291238
23660,2.254,28576,21691,14065,22097,0.134395,-0.00931129,-0.15837
23680,2.307,28573,21690,14066,22102,0.105982,-0.0105843,-0.177703
23700,2.379,28565,21686,14065,22101,0.0801429,-0.0146964,-0.233282
23720,2.411,28553,21678,14060,22096,0.0510122,-0.0110623,-0.199341
23740,2.381,28537,21667,14052,22086,0.0577408,-0.00188745,-0.192946
23760,2.356,28519,21654,14042,22071,0.123419,0.00575449,0.0252319
23780,2.293,28498,21638,14028,22052,0.123473,0.0141541,0.237488
23800,2.279,28474,21620,14012,22029,0.119467,0.0221653,0.296273
23820,2.242,28449,21600,13993,22002,0.0439791,0.0247942,0.195923
23840,2.208,28422,21578,13972,21972,-0.0293483,0.0184095,0.103117
23860,2.186,28395,21555,13949,21940,-0.0247827,0.00520439,0.0825824
23880,2.181,28367,21532,13925,21906,-0.0576568,-0.00991015,0.106802
23900,2.19,28340,21509,13901,21873,-0.0730999,-0.0264684,0.0747144
23920,2.193,28313,21486,13878,21841,-0.0863925,-0.042695,0.139948
23940,2.218,28289,21465,13856,21811,-0.153391,-0.0388828,0.10841
23960,2.243,28266,21446,13837,21785,-0.134262,-0.0318301,0.0716942
23980,2.242,28248,21430,13822,21763,-0.111173,-0.0141908,0.187669
24000,2.281,28233,21418,13812,21748,-0.0954965,0.0118143,0.296153
24020,2.286,28222,21410,13806,21739,-0.0769419,0.0326295,0.27535
24040,2.281,28216,21406,13806,21736,-0.118669,0.0432897,0.2177
24060,2.249,28214,21406,13811,21739,-0.10538,0.0502036,0.283764
24080,2.221,28217,21410,13821,21749,-0.0792921,0.0496789,0.341839
24100,2.281,28224,21418,13836,21765,-0.075947,0.0502808,0.236452
24120,2.461,28234,21430,13854,21785,-0.000721337,0.0407086,0.554429
24140,2.759,28248,21444,13875,21810,-0.0042371,0.0323319,0.608271
24160,3.067,28265,21461,13899,21838,-0.0345378,0.0242992,0.358448
24180,3.192,28286,21480,13925,21870,-0.00324542,0.0136118,0.327155
24200,3.19,28309,21501,13953,21904,-0.0484779,0.0105487,0.0840399
24220,3.159,28335,21525,13982,21940,-0.0539457,0.0177767,-0.211173
24240,2.95,28364,21551,14012,21978,-0.040066,-0.00312924,-0.172971
24260,2.723,28396,21580,14044,22018,-0.188722,-0.0373593,-0.910775
24280,2.551,28431,21610,14077,22060,-0.0754195,-0.0802674,-1.11042
24300,2.447,28468,21643,14111,22103,-0.0535739,-0.119949,-0.859958
24320,2.388,28506,21677,14145,22146,-0.0690705,-0.105839,-1.04643
24340,2.359,28545,21710,14178,22187,0.142735,-0.0857399,-0.575633
24360,2.311,28581,21742,14209,22224,0.113826,-0.0610632,-0.555182
24380,2.271,28613,21770,14235,22256,0.1797,-0.0191415,-0.572611
24400,2.181,28638,21792,14255,22279,0.147104,-0.000287482,-0.441319
24420,2.146,28654,21806,14266,22292,0.0939777,0.0411479,-0.355437
24440,2.169,28658,21811,14266,22292,0.26626,0.0565339,-0.0596449
24460,2.186,28650,21803,14255,22278,0.320706,0.0542636,0.218506
24480,2.221,28627,21784,14232,22250,0.371515,0.0716986,0.372231
24500,2.24,28590,21752,14195,22206,0.344185,0.0539314,0.416726
24520,2.244,28539,21708,14147,22149,0.229002,0.0446436,0.552624
24540,2.244,28477,21655,14089,22081,0.164842,0.0305307,0.46922
24560,2.225,28406,21593,14024,22004,0.204111,0.0164042,0.690926
24580,2.197,28330,21528,13955,21923,0.127564,0.0248626,0.897062
24600,2.156,28254,21461,13886,21842,-0.051097,0.0148403,0.672663
24620,2.138,28181,21397,13821,21766,-0.126834,0.00857549,0.604214
24640,2.096,28116,21340,13764,21699,-0.243707,0.00909216,0.430997
24660,2.111,28063,21293,13717,21646,-0.247196,0.00938495,0.238717
24680,2.135,28025,21258,13685,21609,-0.163982,0.00550127,0.185249
24700,2.138,28004,21238,13668,21591,-0.157271,-0.0312492,-0.00877
24720,2.159,28001,21233,13668,21593,-0.215418,-0.0529915,-0.032191
24740,2.193,28016,21243,13684,21615,-0.275159,-0.0665225,-0.448302
24760,2.215,28047,21267,13715,21654,-0.310596,-0.066674,-0.809506
24780,2.228,28093,21304,13759,21709,-0.238993,-0.0615434,-0.451572
24800,2.228,28151,21350,13813,21777,-0.183002,-0.0483736,-0.505461
24820,2.198,28215,21403,13874,21853,-0.137842,-0.0313963,-0.534147
24840,2.16,28284,21459,13937,21933,-0.108289,-0.031395,-0.464099
24860,2.156,28351,21515,14000,22012,-0.119924,-0.0157545,-0.517584
24880,2.249,28413,21567,14059,22086,-0.0602963,0.00219239,-0.467714
24900,2.506,28467,21613,14111,22151,0.00220893,0.0277353,-0.235583
24920,2.777,28509,21649,14151,22203,0.0922274,0.0464427,-0.0279645
24940,2.992,28538,21675,14179,22240,0.155042,0.0353702,0.0378441
24960,3.053,28552,21688,14194,22261,0.190504,0.0391202,0.180054
24980,2.952,28551,21690,14196,22266,0.189669,0.0323053,0.271539
25000,2.766,28536,21681,14185,22254,0.146426,0.0356344,0.31085
25020,2.573,28510,21662,14163,22229,0.132057,0.0462449,0.369513
25040,2.421,28473,21635,14132,22190,0.175398,0.0191481,0.456203
25060,2.332,28430,21602,14094,22144,0.128547,-0.00240354,0.443312
25080,2.282,28383,21567,14053,22092,0.0888948,-0.017317,0.424688
25100,2.261,28337,21532,14011,22039,0.0515689,-0.0321911,0.380715
25120,2.23,28294,21499,13972,21988,0.0150917,-0.0327896,0.278615
25140,2.197,28258,21471,13939,21942,0.0157991,-0.0363334,0.166274
25160,2.181,28229,21450,13912,21905,-0.0553335,-0.0420435,0.0167501
25180,2.184,28211,21437,13894,21878,-0.083972,-0.0561982,-0.236721
25200,2.19,28205,21432,13886,21864,-0.0961286,-0.0754534,-0.320752
25220,2.27,28209,21435,13887,21862,-0.0868495,-0.0779274,-0.323356
25240,2.279,28224,21446,13897,21871,-0.0503162,-0.0601592,-0.355651
25260,2.288,28247,21464,13915,21892,-0.0641269,-0.0346421,-0.368581
25280,2.263,28276,21486,13939,21921,-0.0595058,-0.0122947,-0.31848
25300,2.221,28310,21511,13967,21956,-0.0156195,0.0129957,-0.240241
25320,2.2,28344,21535,13995,21994,-0.0005487,0.0362008,-0.195765
25340,2.177,28377,21559,14023,22032,0.0490827,0.0583077,0.000511685
25360,2.124,28405,21578,14048,22068,0.0776111,0.0767022,0.185892
25380,2.103,28427,21593,14068,22099,0.0854684,0.0973224,0.246591
25400,2.075,28440,21602,14081,22123,0.0611951,0.104685,0.302538
25420,2.104,28445,21604,14089,22138,0.00490267,0.0982164,0.290887
25440,2.109,28442,21601,14090,22144,0.00349986,0.0689903,0.15924
25460,2.128,28431,21594,14085,22141,0.0305146,0.0369053,0.214652
25480,2.145,28415,21583,14076,22130,0.0109102,0.0164431,0.219608
25500,2.169,28395,21571,14064,22114,-0.0270202,-0.00919183,0.0880949
25520,2.183,28374,21560,14051,22093,-0.0731848,-0.0226872,0.0231248
25540,2.183,28355,21551,14039,22070,-0.0618054,-0.0292085,0.0288906
25560,2.18,28339,21546,14030,22048,-0.0437376,-0.0240801,0.0602595
25580,2.174,28329,21546,14025,22029,-0.0984789,-0.0190704,-0.125511
25600,2.151,28326,21553,14025,22015,-0.0696473,-0.0238905,-0.163897
25620,2.222,28331,21565,14031,22006,-0.0792558,-0.0470566,-0.144561
25640,2.39,28343,21584,14042,22004,-0.0833693,-0.047248,-0.205187
25660,2.646,28362,21607,14058,22009,-0.0258125,-0.0463038,-0.184186
25680,2.919,28385,21634,14079,22020,0.0135847,-0.0351072,-0.136202
25700,3.038,28412,21663,14101,22036,0.0249372,-0.0273673,-0.0287361
25720,2.993,28439,21691,14125,22055,0.0503987,-0.0159778,0.0890837
25740,2.839,28465,21717,14149,22077,0.0411649,0.00863664,0.0310403
25760,2.647,28488,21740,14171,22100,0.0550652,0.0259165,0.0230296
25780,2.474,28506,21759,14190,22121,0.0501959,0.0406684,0.0339335
25800,2.351,28519,21772,14205,22140,0.018293,0.0518183,-0.0836302
25820,2.275,28526,21781,14217,22157,0.0255764,0.0457185,-0.0447766
25840,2.236,28528,21785,14226,22170,0.0227774,0.0333068,0.0309361
25860,2.242,28525,21785,14231,22179,0.0249494,0.0124084,0.0752938
25880,2.229,28518,21783,14233,22185,0.00129203,-0.00028135,-0.000691325
25900,2.181,28509,21778,14233,22187,-0.00230606,-0.0022526,-0.0799433
25920,2.155,28498,21773,14232,22187,0.00013031,-0.000716974,-0.0445295
25940,2.169,28488,21769,14230,22184,-0.00124115,0.00207765,-0.0482578
25960,2.187,28480,21765,14227,22179,0.00121661,0.00318388,0.0198204
25980,2.223,28473,21763,14225,22173,0.00703174,0.00177214,0.122412
26000,2.247,28468,21763,14223,22167,-0.0213725,0.0122294,0.131889
26020,2.251,28465,21764,14221,22159,-0.0260401,0.0190744,0.149644
26040,2.247,28465,21766,14219,22152,-0.0505118,0.0226019,0.110986
26060,2.237,28466,21768,14216,22144,-0.0482217,0.0130002,0.0538066
26080,2.179,28468,21770,14214,22136,-0.0320937,-0.00604205,0.153508
26100,2.165,28470,21772,14210,22128,-0.0561536,-0.0190475,0.140596
26120,2.141,28472,21773,14207,22121,-0.057282,-0.0292325,0.115568
26140,2.139,28475,21773,14203,22115,-0.0596773,-0.0323866,-0.00325543
26160,2.146,28476,21772,14200,22110,-0.0164513,-0.0237956,0.097188
26180,2.124,28478,21770,14196,22108,-0.0111876,-0.0161092,0.160144
26200,2.134,28480,21768,14194,22107,-0.0356806,-0.00920691,-0.015408
26220,2.127,28482,21766,14193,22108,-0.0172653,-0.0130448,-0.0960078
26240,2.151,28484,21764,14192,22113,0.0123165,-0.0176258,-0.0775923
26260,2.16,28488,21762,14194,22119,0.037332,-0.0173734,-0.107579
26280,2.148,28493,21762,14197,22128,0.0484779,-0.0136948,-0.174584
26300,2.176,28499,21762,14201,22139,0.0640675,-0.0142959,-0.229562
26320,2.195,28506,21763,14207,22151,0.0605425,-0.0159108,-0.269352
26340,2.225,28513,21764,14212,22164,0.0757248,-0.0163545,-0.18365
26360,2.289,28521,21766,14218,22176,0.0874974,-0.0101683,-0.133083
26380,2.505,28528,21767,14223,22187,0.0696841,-0.00592577,-0.222836
26400,2.815,28533,21767,14226,22195,0.0733626,0.00244385,-0.322988
26420,3.07,28536,21765,14227,22199,0.0566173,0.00673741,-0.366962
26440,3.171,28535,21760,14225,22200,0.0474958,0.007936,-0.289635
26460,3.112,28531,21753,14219,22195,0.0106663,0.00561266,-0.299149
26480,2.929,28522,21743,14210,22185,0.0384563,-0.00561577,-0.221445
26500,2.721,28508,21729,14196,22169,0.0589934,-0.0142769,-0.0255664
26520,2.548,28490,21711,14178,22147,0.037879,-0.00460147,0.0491789
26540,2.407,28467,21690,14156,22121,0.0789359,0.0135231,0.16894
26560,2.323,28441,21666,14131,22090,0.0799728,0.0315652,0.295296
26580,2.27,28411,21640,14103,22055,0.0536048,0.0487132,0.282741
26600,2.237,28379,21611,14072,22018,0.0348647,0.05527,0.381549
26620,2.205,28346,21582,14040,21980,0.00702014,0.0495611,0.428095
26640,2.187,28312,21553,14008,21943,0.0112102,0.0347374,0.43406
26660,2.201,28280,21524,13977,21907,-0.0388103,0.0214792,0.340898
26680,2.268,28251,21498,13949,21876,-0.064595,0.00607328,0.337394
26700,2.328,28226,21476,13925,21850,-0.107913,-0.00742008,0.25276
26720,2.362,28206,21458,13905,21831,-0.165097,-0.0237797,0.0786452
26740,2.36,28193,21445,13893,21820,-0.14459,-0.0355757,-0.00272662
26760,2.379,28187,21438,13887,21818,-0.159558,-0.0434503,-0.100306
26780,2.373,28189,21438,13889,21824,-0.156499,-0.0379557,-0.172363
26800,2.314,28199,21445,13898,21840,-0.138904,-0.0288189,-0.217568
26820,2.278,28216,21457,13914,21863,-0.121004,-0.0146467,-0.26836
26840,2.221,28239,21475,13936,21894,-0.0776976,-0.00559748,-0.398941
26860,2.201,28267,21497,13963,21929,-0.0298729,-0.00158218,-0.336327
26880,2.197,28299,21521,13992,21968,0.0142956,-0.00104706,-0.225608
26900,2.197,28331,21547,14023,22007,0.100945,0.00219505,-0.0398128
26920,2.191,28362,21572,14053,22045,0.130628,0.00891673,0.118912
26940,2.172,28390,21594,14080,22078,0.119861,0.0224336,0.0750657
26960,2.165,28413,21613,14102,22105,0.125966,0.0366551,0.172875
26980,2.18,28429,21626,14119,22125,0.0813835,0.0426224,0.176282
27000,2.202,28439,21634,14130,22137,0.133838,0.0377643,0.223902
27020,2.179,28442,21637,14134,22140,0.111215,0.0119627,0.17311
27040,2.19,28437,21634,14132,22135,0.0484672,-0.00640311,0.15712
27060,2.212,28427,21626,14125,22123,0.0105599,-0.0220188,0.146359
27080,2.346,28413,21616,14114,22106,-0.0418418,-0.0325964,0.0345975
27100,2.633,28397,21603,14101,22085,-0.0350631,-0.0355043,-0.0476216
27120,2.978,28380,21589,14086,22062,-0.0445831,-0.039812,-0.0225366
27140,3.154,28364,21577,14071,22041,-0.0649551,-0.0435884,-0.0623093
27160,3.161,28351,21567,14059,22022,-0.0685667,-0.0467023,-0.107992
27180,3.045,28342,21559,14048,22007,-0.0975822,-0.0382429,-0.128034
27200,2.857,28338,21556,14041,21996,-0.0687845,-0.0230724,-0.094356
27220,2.668,28338,21556,14038,21991,-0.081336,0.000102013,-0.166708
27240,2.479,28343,21559,14037,21992,-0.0575919,0.0159308,-0.26759
27260,2.359,28351,21564,14040,21997,-0.00717777,0.0109297,-0.198426
27280,2.299,28361,21572,14044,22006,0.00135998,0.00302524,-0.188637
27300,2.265,28373,21580,14050,22017,-0.00316888,-0.00320942,-0.166555
27320,2.207,28384,21589,14055,22029,0.0313276,-0.00753268,-0.0948901
27340,2.167,28393,21595,14060,22041,0.06017,0.0104695,0.0081659
27360,2.169,28399,21600,14063,22051,0.0801472,0.0281379,0.0434553
27380,2.211,28402,21603,14065,22058,0.110513,0.042747,0.142923
27400,2.24,28401,21602,14064,22061,0.088635,0.0517601,0.207437
27420,2.272,28397,21599,14060,22060,0.0477635,0.0422231,0.179326
27440,2.316,28390,21594,14054,22055,0.0173378,0.0348413,0.241418
27460,2.337,28380,21586,14047,22047,-0.000016369,0.0229886,0.196237
27480,2.33,28369,21578,14038,22035,-0.000443475,0.0158783,0.25702
27500,2.306,28358,21569,14028,22022,-0.0199483,0.00320957,0.233693
27520,2.274,28348,21561,14019,22007,-0.0380484,-0.0135339,0.194068
27540,2.232,28341,21555,14011,21993,-0.0754808,-0.0313417,0.201587
27560,2.208,28337,21552,14005,21980,-0.124906,-0.0448824,0.0472251
27580,2.193,28338,21551,14001,21971,-0.0991748,-0.0462643,0.0759566
27600,2.19,28344,21554,14000,21965,-0.0983795,-0.0420802,0.126604
27620,2.173,28355,21560,14002,21963,-0.0725208,-0.0296848,0.153697
27640,2.184,28370,21571,14007,21967,-0.0504298,-0.00937711,0.124206
27660,2.207,28391,21585,14016,21975,-0.0904469,-0.00528749,0.0105169
27680,2.209,28416,21601,14028,21988,-0.0595419,-0.00691197,-0.00784666
27700,2.222,28444,21621,14043,22006,-0.0440931,-0.0056925,-0.0461506
27720,2.216,28475,21642,14060,22028,-0.0383041,-0.012746,-0.118822
27740,2.208,28507,21665,14079,22053,-0.0352362,-0.0265131,-0.208356
27760,2.233,28540,21688,14099,22081,-0.00464623,-0.0354991,-0.356837
27780,2.342,28572,21711,14120,22110,0.0501573,-0.0337006,-0.409126
27800,2.563,28602,21733,14141,22138,0.0594273,-0.0267132,-0.352024
27820,2.881,28630,21754,14161,22166,0.0920017,-0.0133525,-0.339683
27840,3.124,28655,21773,14179,22192,0.121637,-0.0113922,-0.310994
27860,3.166,28675,21789,14194,22213,0.114199,0.000481263,-0.359909
27880,3.077,28691,21802,14206,22230,0.109635,0.00735739,-0.402381
27900,2.895,28701,21810,14214,22242,0.067525,0.00732909,-0.397161
27920,2.645,28705,21815,14216,22246,0.0697727,0.0163395,-0.414346
27940,2.458,28703,21815,14214,22243,0.0920048,-0.0015505,-0.314775
27960,2.299,28695,21810,14206,22233,0.0790973,-0.00523145,-0.12351
27980,2.212,28680,21800,14191,22214,0.0954585,-0.000158473,-0.0017797
28000,2.174,28658,21784,14171,22188,0.0809752,-0.00226768,0.0201914
28020,2.123,28631,21764,14145,22154,0.0865268,0.0145426,0.0244732
28040,2.123,28598,21738,14114,22114,0.117714,0.0306601,0.134115
28060,2.158,28561,21709,14078,22068,0.164113,0.0423483,0.284981
28080,2.212,28520,21675,14040,22018,0.182144,0.0433454,0.37522
28100,2.253,28476,21639,13999,21966,0.101804,0.036961,0.426764
28120,2.325,28431,21602,13957,21914,0.0171702,0.0243694,0.374004
28140,2.376,28386,21565,13916,21863,0.0131714,0.0162798,0.412701
28160,2.404,28344,21529,13878,21816,-0.00731615,0.0138991,0.433794
28180,2.393,28305,21496,13844,21774,-0.0421492,0.00986692,0.427049
28200,2.372,28271,21468,13816,21740,-0.0703189,0.00257961,0.466993
28220,2.372,28244,21444,13795,21714,-0.169977,0.000258828,0.40511
28240,2.369,28225,21428,13781,21698,-0.22467,0.00552417,0.339939
28260,2.334,28214,21418,13775,21693,-0.230202,0.0213065,0.234682
28280,2.324,28213,21416,13779,21699,-0.1647,0.0283363,0.216712
28300,2.302,28221,21421,13791,21715,-0.12636,0.0222875,0.186866
28320,2.304,28237,21435,13811,21742,-0.185139,0.0295114,-0.0277672
28340,2.299,28262,21455,13838,21778,-0.173705,0.0140995,-0.135995
28360,2.325,28295,21481,13872,21821,-0.190693,-0.0157595,-0.140092
28380,2.316,28333,21513,13911,21870,-0.172165,-0.0229913,-0.348319
28400,2.307,28375,21548,13954,21924,-0.14731,-0.0348322,-0.372542
28420,2.285,28419,21585,13998,21979,-0.145644,-0.0356308,-0.262502
28440,2.299,28463,21623,14042,22033,-0.103847,-0.0218321,-0.30411
28460,2.488,28506,21660,14084,22086,-0.0721958,-0.00713219,-0.37558
28480,2.796,28545,21694,14123,22133,-0.0147882,-0.0012762,-0.336699
28500,3.148,28579,21724,14158,22175,0.016369,0.00445631,-0.308418
28520,3.189,28606,21748,14186,22208,0.0773901,0.01471,-0.168665
28540,3.189,28625,21766,14207,22233,0.139612,0.0256387,0.0677795
28560,3.183,28635,21778,14220,22247,0.145725,0.0314642,0.0512285
28580,3.154,28636,21781,14226,22252,0.155159,0.0298689,0.0165945
28600,2.888,28628,21777,14224,22247,0.151481,0.0158478,0.0570391
28620,2.621,28612,21767,14214,22232,0.154991,0.000807902,0.170466
28640,2.423,28589,21750,14199,22210,0.135235,-0.0138363,0.199231
28660,2.304,28560,21729,14179,22182,0.109561,-0.0313078,0.0881472
28680,2.243,28528,21705,14155,22149,0.0614485,-0.0405843,-0.044183
28700,2.183,28493,21678,14129,22114,0.0519357,-0.0543077,-0.0301585
28720,2.19,28459,21651,14103,22078,0.0676704,-0.0559348,0.118628
28740,2.226,28426,21625,14078,22045,0.0111776,-0.042756,0.106541
28760,2.257,28396,21602,14055,22014,-0.022995,-0.0373013,-0.0258802
28780,2.349,28371,21581,14035,21988,-0.0487947,-0.0359029,-0.122305
28800,2.425,28351,21565,14020,21968,-0.0586529,-0.0261007,-0.146192
28820,2.45,28336,21553,14009,21954,-0.056854,-0.0252519,-0.169514
28840,2.45,28327,21545,14003,21947,-0.0211661,-0.0198256,-0.0693495
28860,2.446,28323,21540,14001,21945,-0.0263861,-0.0153321,0.0405232
28880,2.402,28322,21539,14003,21948,-0.0529292,-0.00872554,0.0384707
28900,2.358,28324,21540,14007,21955,-0.0515377,0.00456823,-0.0085224
28920,2.302,28328,21542,14013,21965,-0.021064,0.0115435,-0.0629479
28940,2.271,28333,21545,14019,21976,0.0160824,0.0160376,0.00818847
28960,2.249,28337,21548,14026,21987,0.00919639,0.022065,0.0417414
28980,2.228,28340,21550,14033,21997,0.0284996,0.0228783,0.0372128
29000,2.214,28341,21551,14038,22006,0.0281991,0.0204406,0.0277225
29020,2.239,28340,21550,14042,22013,0.0246924,0.0116892,-0.0320413
29040,2.249,28337,21549,14044,22017,0.0590823,0.00160301,0.0288304
29060,2.265,28332,21546,14046,22019,0.057685,8.54E-05,0.0447765
29080,2.267,28326,21543,14046,22018,0.0538391,-0.000580514,-0.0136074
29100,2.265,28320,21539,14045,22016,0.0310692,-0.00998181,-0.0296843
29120,2.253,28314,21536,14044,22012,0.0250062,-0.018596,-0.0761012
29140,2.31,28308,21533,14043,22008,0.038141,-0.0164871,0.0747454
29160,2.465,28303,21531,14041,22002,0.0229811,-0.00384681,0.15457
29180,2.836,28298,21529,14040,21997,-0.00931756,0.0152428,0.120401
29200,3.178,28295,21527,14039,21992,-0.0475757,0.0195357,0.140726
29220,3.186,28293,21527,14038,21987,-0.0557757,0.0158323,0.071624
29240,3.187,28291,21526,14036,21982,-0.0654049,0.00833042,0.0615189
29260,3.186,28291,21526,14035,21979,-0.0716831,-0.00397227,0.0747049
29280,3.186,28291,21526,14035,21976,-0.0716496,-0.0105798,-0.0260816
29300,3.147,28292,21526,14034,21975,-0.072647,-0.0102437,-0.00216714
29320,2.838,28294,21527,14034,21976,-0.0854045,-0.0037145,-0.0579016
29340,2.559,28296,21527,14034,21978,-0.0479768,0.00192569,-0.114093
29360,2.4,28298,21528,14035,21982,-0.00320252,-0.00359207,-0.11033
29380,2.332,28301,21530,14037,21987,0.0147259,-0.00388914,-0.183706
29400,2.286,28305,21532,14040,21995,0.0365174,0.000971866,-0.125981
29420,2.267,28309,21534,14043,22003,0.0287187,0.00133942,-0.152755
29440,2.264,28314,21537,14047,22012,0.024929,0.00345664,-0.260765
29460,2.276,28319,21541,14050,22021,0.0506946,0.000511141,-0.235292
29480,2.32,28323,21544,14054,22029,0.0838443,-0.000155434,-0.137327
29500,2.386,28326,21546,14057,22035,0.0922453,0.00276497,0.0279563
29520,2.421,28328,21548,14059,22039,0.0490431,0.00522601,0.085255
29540,2.437,28329,21548,14059,22039,0.072069,0.0151565,0.0522561
29560,2.419,28328,21546,14057,22036,0.0732345,0.020305,0.103921
29580,2.415,28324,21542,14053,22029,0.0537811,0.0318898,0.193991
29600,2.363,28318,21536,14046,22018,0.0538442,0.0422831,0.263664
29620,2.313,28310,21528,14037,22004,-0.0110869,0.0383614,0.283582
29640,2.263,28301,21519,14026,21987,-0.0157383,0.0241564,0.239693
29660,2.226,28290,21508,14014,21969,-0.0501326,0.000958184,0.217429
29680,2.233,28280,21498,14002,21950,-0.0940724,-0.0120756,0.18335
29700,2.236,28270,21487,13990,21932,-0.0940129,-0.0202513,0.0742991
29720,2.239,28262,21479,13980,21917,-0.108152,-0.0252828,0.0824347
29740,2.261,28256,21472,13973,21906,-0.120765,-0.0276142,0.0161428
29760,2.275,28254,21469,13969,21899,-0.125836,-0.0290687,-0.0165861
29780,2.3,28256,21469,13968,21898,-0.148975,-0.0274366,-0.0907475
29800,2.299,28262,21472,13971,21902,-0.132818,-0.025171,-0.244103
29820,2.304,28272,21479,13979,21912,-0.0579812,-0.0168556,-0.228703
29840,2.302,28286,21489,13990,21927,-0.0201411,-0.00663606,-0.250185
29860,2.324,28302,21501,14004,21947,-0.00718321,8.25E-05,-0.245155
29880,2.528,28321,21515,14019,21969,0.0410751,-0.00195252,-0.160406
29900,2.916,28339,21530,14036,21993,0.0625173,-0.000840376,-0.183332
29920,3.189,28357,21544,14052,22016,0.0916702,0.0100001,-0.137607
29940,3.186,28373,21557,14067,22038,0.122678,0.0267978,-0.0405905
29960,3.186,28386,21567,14079,22056,0.107785,0.0428031,-0.0104543
29980,3.192,28394,21574,14088,22070,0.102209,0.0484658,0.144201
30000,3.189,28398,21577,14092,22078,0.117125,0.0516228,0.210505
30020,3.066,28397,21576,14092,22081,0.112318,0.0534116,0.184993
30040,2.706,28390,21572,14088,22077,0.0811168,0.0483631,0.254811
30060,2.463,28380,21564,14079,22068,0.0499979,0.0344733,0.165074
30080,2.338,28366,21554,14068,22054,0.0437899,0.0211151,0.236364
30100,2.283,28350,21542,14054,22037,0.00835934,-0.000274834,0.2791
30120,2.222,28333,21530,14040,22018,-0.0157182,-0.0148112,0.189451
30140,2.159,28317,21518,14025,21998,-0.0549978,-0.0364051,0.107831
30160,2.107,28303,21509,14013,21980,-0.0681216,-0.0451216,0.100489
30180,2.162,28292,21501,14002,21965,-0.0729369,-0.0380651,0.0561967
30200,2.201,28285,21497,13996,21954,-0.118245,-0.0329757,-0.0888523
30220,2.243,28284,21497,13993,21948,-0.114799,-0.031515,-0.18383
30240,2.272,28287,21501,13994,21948,-0.107065,-0.041047,-0.16027
30260,2.272,28296,21508,14000,21954,-0.0896836,-0.0338083,-0.131774
30280,2.265,28309,21518,14010,21965,-0.0705805,-0.0236234,-0.169658
30300,2.237,28325,21531,14022,21981,-0.0288406,-0.0147969,-0.198196
30320,2.209,28344,21546,14037,22000,0.0200406,-0.000616777,-0.263722
30340,2.174,28363,21560,14053,22022,0.0725688,0.00500781,-0.0653854
30360,2.146,28382,21574,14069,22044,0.088779,0.0170978,0.0343028
30380,2.125,28399,21587,14084,22065,0.068971,0.02106,-0.126457
30400,2.106,28413,21597,14098,22085,0.0847025,0.0269509,-0.145754
30420,2.089,28423,21604,14108,22100,0.0338071,0.0199979,-0.436348
30440,2.102,28428,21608,14115,22111,0.12025,0.0156318,-0.251011
30460,2.107,28429,21608,14119,22117,0.193951,0.00794413,0.249241
30480,2.116,28425,21604,14119,22118,0.105006,0.010156,0.258545
30500,2.116,28416,21598,14116,22113,0.0665287,0.0165612,-0.0595372
30520,2.142,28404,21589,14109,22103,0.0567506,0.0112616,-0.237508
30540,2.145,28389,21577,14099,22088,0.108667,0.0157125,0.155809
30560,2.127,28372,21564,14087,22069,0.133155,0.0224008,0.502326
30580,2.139,28354,21550,14074,22048,0.0734567,0.0342972,0.551052
30600,2.208,28336,21536,14059,22025,0.0171651,0.0280944,0.598367
30620,2.409,28319,21523,14045,22001,-0.0682018,0.00927761,0.400372
30640,2.723,28303,21511,14031,21979,-0.151079,0.00514493,-0.0678118
30660,2.999,28291,21501,14019,21959,-0.104463,-0.00501762,0.0637061
30680,3.112,28283,21494,14009,21944,-0.048404,-0.0277257,0.161466
30700,3.053,28279,21491,14003,21933,-0.024489,-0.0462369,0.161406
30720,2.896,28280,21491,14001,21929,-0.166374,-0.0661306,-0.218678
30740,2.688,28286,21495,14003,21931,-0.308523,-0.0600799,-1.0471
30760,2.488,28297,21504,14010,21939,-0.145803,-0.0780756,-0.936312
30780,2.337,28313,21516,14021,21955,-0.119239,-0.0714887,-0.94159
30800,2.229,28333,21532,14035,21976,0.0273835,-0.0433899,-0.510844
30820,2.18,28356,21550,14053,22002,0.0462919,-0.041424,-0.552478
30840,2.13,28380,21568,14071,22029,-0.0424916,-0.0318057,-0.849796
30860,2.085,28401,21585,14087,22055,-0.0230282,-0.0213559,-1.08037
30880,2.083,28418,21598,14099,22077,-0.0535957,-0.00762059,-0.845438
30900,2.09,28427,21605,14105,22091,0.0342997,0.0400204,-0.407646
30920,2.128,28428,21604,14103,22096,0.257693,0.0485312,0.201393
30940,2.177,28416,21594,14090,22087,0.322233,0.0593302,0.64674
30960,2.207,28391,21572,14066,22063,0.399867,0.0860343,0.618504
30980,2.23,28352,21538,14030,22024,0.366934,0.0968201,0.605705
31000,2.246,28300,21494,13982,21970,0.308882,0.134473,0.91734
31020,2.225,28236,21440,13925,21903,0.352222,0.130676,0.870128
31040,2.191,28163,21380,13860,21826,0.319053,0.105881,1.23696
31060,2.169,28086,21315,13792,21743,0.207285,0.0628028,1.4197
31080,2.13,28008,21250,13724,21660,-0.058615,0.0202543,0.944989
31100,2.113,27935,21189,13660,21581,-0.203787,0.00897449,0.889099
31120,2.117,27872,21136,13604,21511,-0.315946,0.016381,0.801868
31140,2.139,27824,21094,13562,21457,-0.280973,0.0250067,0.915454
31160,2.158,27793,21068,13535,21422,-0.159937,0.0266005,1.05694
31180,2.159,27785,21059,13527,21410,-0.126399,-0.00178363,0.846287
31200,2.173,27799,21070,13540,21422,-0.292498,-0.0174546,0.376731
31220,2.187,27837,21100,13573,21460,-0.351187,-0.00173318,0.0389584
31240,2.202,27898,21149,13627,21524,-0.511432,0.00509655,-0.765618
31260,2.184,27980,21216,13699,21610,-0.676057,-0.0422741,-0.924928
31280,2.198,28079,21298,13787,21717,-0.699895,-0.0728192,-0.583896
31300,2.207,28192,21391,13888,21839,-0.709129,-0.14523,-1.49919
31320,2.194,28312,21492,13997,21972,-0.547725,-0.198257,-0.947222
31340,2.272,28435,21596,14110,22109,-0.496568,-0.137961,-0.772115
31360,2.503,28555,21698,14221,22244,-0.364198,-0.0510236,-0.888303
31380,2.796,28666,21795,14325,22371,-0.191845,0.0200521,-0.660403
31400,3.013,28763,21881,14419,22485,0.00578995,0.0646739,-0.686581
31420,3.081,28843,21954,14497,22580,0.157768,0.0781979,-0.589504
31440,3.013,28901,22010,14557,22652,0.383229,0.0562427,-0.389231
31460,2.838,28937,22047,14597,22699,0.55633,0.0827443,-0.158598
31480,2.638,28949,22065,14616,22719,0.461826,0.0551365,-0.278715
31500,2.443,28937,22063,14612,22713,0.281925,0.03106,-0.249931
31520,2.272,28904,22043,14589,22680,0.407921,-0.00124839,-0.0370698
31540,2.198,28851,22006,14546,22624,0.44131,-0.0611164,0.0157432
31560,2.131,28783,21956,14489,22549,0.509469,-0.0726961,0.0860132
31580,2.109,28705,21895,14419,22459,0.882953,-0.0585868,0.309513
31600,2.061,28620,21828,14341,22358,0.815152,-0.0435699,0.264068
31620,2.068,28533,21757,14258,22251,0.697007,0.020913,0.261227
31640,2.1,28448,21687,14175,22143,0.705111,0.0449438,0.313567
31660,2.142,28369,21620,14094,22039,0.574198,0.0332442,0.197923
31680,2.183,28300,21558,14018,21942,0.550503,0.000639125,0.190024
31700,2.223,28241,21504,13949,21855,0.336689,-0.0567165,0.188312
31720,2.235,28195,21457,13889,21780,0.119997,-0.0718511,0.193924
31740,2.228,28161,21419,13838,21718,-0.109779,-0.0824967,0.183646
31760,2.197,28138,21389,13795,21670,-0.37284,-0.0688806,0.150649
31780,2.191,28126,21366,13761,21634,-0.516246,-0.0414182,0.137916
31800,2.144,28122,21349,13735,21611,-0.476528,-0.017034,0.14236
31820,2.145,28126,21337,13717,21599,-0.25975,0.0222219,0.214676
31840,2.128,28135,21329,13704,21596,-0.219411,0.0279543,0.148503
31860,2.148,28147,21325,13698,21602,-0.414629,0.0555755,0.0559454
31880,2.148,28161,21323,13696,21614,-0.39309,0.0707624,0.0822506
31900,2.169,28176,21324,13700,21632,-0.475057,0.0636542,0.0549786
31920,2.167,28192,21328,13707,21654,-0.584275,0.052797,0.051745
31940,2.187,28208,21334,13720,21681,-0.526913,0.00846619,-0.00181326
31960,2.187,28224,21343,13737,21710,-0.457446,-0.00855633,0.183815
31980,2.191,28242,21356,13758,21743,-0.339228,-0.0357943,0.0767043
32000,2.17,28261,21373,13784,21778,-0.361343,-0.00601165,0.030269
32020,2.184,28283,21394,13813,21814,-0.402579,0.0362858,-0.108781
32040,2.263,28307,21419,13846,21851,-0.338063,0.0504415,-0.166015
32060,2.447,28333,21448,13882,21889,-0.153104,0.0608077,-0.102392
32080,2.752,28361,21480,13918,21926,-0.0812116,0.0438707,-0.176258
32100,3.062,28391,21515,13956,21963,0.116538,0.00803642,-0.0270084
32120,3.182,28423,21550,13992,21997,0.311985,-0.0147529,0.110038
32140,3.19,28455,21587,14028,22029,0.359163,-0.00999696,0.227174
32160,3.103,28487,21622,14060,22057,0.396693,0.000964223,0.296527
32180,2.873,28517,21656,14089,22082,0.201251,-0.000670331,0.167893
32200,2.647,28546,21687,14114,22103,0.197991,-0.0234519,0.101541
32220,2.425,28573,21715,14135,22121,0.255945,-0.0385625,-0.0284144
32240,2.286,28597,21740,14152,22135,0.194947,-0.0284274,-0.173726
32260,2.179,28618,21760,14164,22145,0.256458,-0.0330713,-0.173761
32280,2.113,28635,21776,14172,22153,0.222235,-0.0321493,-0.252319
32300,2.125,28650,21789,14176,22158,0.157854,-0.0359396,-0.268702
32320,2.148,28662,21796,14177,22160,0.147027,-0.0567182,-0.152207
32340,2.186,28671,21800,14174,22161,0.117023,-0.061589,-0.171237
32360,2.249,28676,21801,14168,22159,0.123616,-0.058296,-0.131646
32380,2.302,28679,21798,14160,22155,0.132667,-0.0541529,-0.120224
32400,2.362,28679,21791,14150,22150,0.122519,-0.0334468,-0.23239
32420,2.353,28675,21782,14138,22142,0.0943656,-0.0129628,-0.222836
32440,2.366,28668,21770,14124,22131,0.0488558,-0.00377845,-0.274611
32460,2.348,28657,21756,14107,22118,0.0426957,-0.00460737,-0.321962
32480,2.32,28642,21738,14089,22101,0.0337766,-0.0217975,-0.314971
32500,2.281,28623,21718,14069,22081,0.0344803,-0.0231557,-0.282583
32520,2.272,28599,21696,14046,22057,0.0785896,-0.027924,-0.157562
32540,2.233,28572,21671,14022,22029,0.0854392,-0.0183036,0.0181078
32560,2.194,28541,21644,13995,21998,0.0989307,0.00887923,0.208978
32580,2.18,28507,21616,13968,21964,0.0501451,0.0378244,0.284271
32600,2.158,28470,21586,13938,21929,-0.0273939,0.0767101,0.359946
32620,2.155,28433,21556,13909,21891,-0.00113941,0.089289,0.429931
32640,2.173,28395,21526,13879,21854,-0.0683256,0.0812769,0.431367
32660,2.179,28359,21497,13850,21817,-0.148465,0.0637565,0.342861
32680,2.172,28325,21470,13822,21783,-0.177217,0.037095,0.380796
32700,2.208,28295,21446,13798,21752,-0.241447,0.0175026,0.303771
32720,2.232,28270,21426,13777,21725,-0.224007,-0.00663949,0.273767
32740,2.338,28251,21411,13760,21705,-0.169764,-0.0264504,0.34247
32760,2.59,28239,21401,13750,21691,-0.152958,-0.0393426,0.275372
32780,2.927,28235,21397,13745,21685,-0.167651,-0.0373901,0.231789
32800,3.154,28238,21399,13747,21688,-0.182103,-0.01853,0.173614
32820,3.187,28249,21408,13757,21699,-0.171539,-0.00489009,0.0314759
32840,3.171,28267,21422,13773,21719,-0.134307,0.00990798,-0.000253097
32860,3.032,28292,21443,13795,21747,-0.130429,0.0124805,-0.0680786
32880,2.798,28323,21468,13824,21783,-0.117687,0.00413453,-0.0817447
32900,2.597,28358,21496,13857,21826,-0.100251,-0.00458155,-0.0813016
32920,2.414,28397,21528,13893,21873,-0.105165,-0.0101706,-0.161998
32940,2.288,28437,21560,13932,21923,-0.0506628,-0.0122734,-0.140178
32960,2.212,28477,21592,13971,21974,-0.0029871,-0.00980853,-0.12912
32980,2.184,28515,21623,14008,22024,0.0479182,0.000333992,-0.0107019
33000,2.166,28550,21652,14044,22072,0.0746356,0.014549,0.0682812
33020,2.187,28580,21677,14075,22115,0.0745798,0.037328,0.0390873
33040,2.219,28605,21697,14102,22152,0.0537347,0.0454317,-0.0527194
33060,2.29,28623,21712,14123,22183,0.0574071,0.0432687,-0.126252
33080,2.341,28636,21723,14139,22206,0.0795074,0.0327317,-0.164612
33100,2.383,28642,21729,14150,22222,0.0775513,0.00883452,-0.180783
33120,2.386,28643,21731,14156,22232,0.0547206,-0.0207471,-0.271862
33140,2.386,28639,21729,14157,22234,0.0660689,-0.0515959,-0.303955
33160,2.352,28631,21724,14155,22232,0.0683311,-0.0658675,-0.313527
33180,2.314,28620,21717,14149,22224,0.0746606,-0.0651224,-0.361922
33200,2.261,28606,21708,14141,22212,0.104316,-0.0612042,-0.393291
33220,2.204,28590,21697,14131,22196,0.111434,-0.0551822,-0.326313
33240,2.156,28572,21684,14118,22177,0.0797574,-0.044916,-0.304532
33260,2.151,28553,21670,14104,22155,0.0666163,-0.0284707,-0.272544
33280,2.132,28532,21654,14088,22131,0.0594162,-0.0214506,-0.286675
33300,2.149,28509,21637,14069,22104,0.04784,-0.0197294,-0.263498
33320,2.165,28484,21616,14048,22074,0.0878561,-0.0150486,-0.063155
33340,2.195,28456,21593,14024,22041,0.032719,-0.0125958,-0.134783
33360,2.191,28426,21568,13998,22006,0.0515219,-0.0138558,-0.0997154
33380,2.204,28393,21539,13969,21968,0.0692309,-0.0211457,0.125634
33400,2.208,28357,21508,13938,21929,0.0373834,-0.021484,0.181004
33420,2.214,28318,21474,13904,21888,0.0875919,-0.00351014,0.335017
33440,2.267,28278,21438,13870,21847,0.0490911,0.022867,0.387269
33460,2.484,28236,21401,13835,21806,0.0263715,0.0430551,0.370259
33480,2.877,28195,21365,13800,21766,0.00275477,0.0437497,0.431494
33500,3.18,28154,21329,13767,21729,0.00173767,0.0499985,0.491911
33520,3.185,28117,21297,13737,21696,-0.00973431,0.039204,0.504983
33540,3.183,28084,21268,13712,21669,-0.0611244,0.0290374,0.537525
33560,3.189,28056,21244,13691,21648,-0.0811555,0.0246217,0.479459
33580,3.017,28035,21226,13678,21635,-0.127259,0.0137834,0.393823
33600,2.745,28022,21216,13671,21630,-0.146198,0.00631521,0.378723
33620,2.524,28018,21213,13672,21634,-0.101662,-0.00636461,0.449836
33640,2.393,28024,21219,13681,21647,-0.0769576,-0.0117844,0.345273
33660,2.325,28039,21233,13699,21669,-0.104026,-0.0136702,0.138704
33680,2.293,28063,21254,13724,21701,-0.157215,-0.0151773,-0.0034862
33700,2.258,28096,21283,13755,21740,-0.119158,-0.0169626,-0.069455
33720,2.246,28137,21318,13793,21785,-0.0975817,-0.0204753,-0.151268
33740,2.244,28183,21357,13836,21837,-0.0845005,-0.0270611,-0.131593
33760,2.281,28235,21401,13882,21893,-0.117899,-0.0325955,-0.359915
33780,2.307,28289,21447,13930,21950,-0.117393,-0.0438313,-0.450338
33800,2.358,28345,21494,13980,22010,-0.0714356,-0.040559,-0.417438
33820,2.384,28400,21539,14028,22068,-0.0352441,-0.0339479,-0.460312
33840,2.369,28452,21582,14073,22121,0.00325767,-0.0221208,-0.402442
33860,2.36,28498,21621,14114,22170,0.00402369,-0.0135245,-0.403553
33880,2.321,28537,21653,14148,22210,0.0577705,-0.00377537,-0.345764
33900,2.271,28568,21679,14175,22242,0.0954021,0.0065798,-0.251341
33920,2.197,28589,21697,14194,22263,0.123418,0.0212021,-0.231935
33940,2.141,28600,21706,14205,22273,0.182021,0.0247493,-0.175378
33960,2.113,28600,21706,14205,22271,0.163692,0.0233749,-0.134086
33980,2.088,28589,21698,14197,22258,0.123784,0.0189932,-0.123701
34000,2.09,28569,21682,14180,22234,0.0835576,0.00573896,-0.101905
34020,2.086,28542,21660,14157,22202,0.105814,-0.012373,-0.157588
34040,2.076,28507,21632,14127,22161,0.125929,-0.0206343,-0.0053669
34060,2.106,28469,21600,14092,22115,0.081309,-0.0195989,-0.0200511
34080,2.137,28426,21565,14054,22064,0.0766309,-0.00911619,-0.102244
34100,2.152,28383,21529,14015,22012,0.0823481,-0.00856351,0.0723824
34120,2.152,28340,21493,13975,21959,0.0588029,-0.00478307,0.0647597
34140,2.149,28299,21458,13935,21908,0.0943281,0.00467976,0.141161
34160,2.18,28260,21425,13898,21860,0.081903,0.0174012,0.226736
34180,2.325,28226,21394,13864,21817,0.0446168,0.0352842,0.106488
34200,2.636,28196,21366,13834,21780,0.0629202,0.0410136,0.132883
34220,2.922,28171,21343,13808,21749,0.0355966,0.043786,0.285592
34240,3.085,28151,21323,13786,21724,0.00386342,0.0388051,0.391522
34260,3.092,28136,21306,13769,21707,-0.0491565,0.036305,0.311649
34280,2.964,28125,21294,13758,21696,-0.0608605,0.0365449,0.274706
34300,2.754,28118,21285,13750,21691,-0.0867715,0.0311671,0.288681
34320,2.547,28115,21281,13748,21693,-0.108529,0.0339458,0.257629
34340,2.383,28116,21279,13749,21700,-0.125484,0.0332535,0.206381
34360,2.271,28120,21282,13755,21713,-0.150008,0.0190808,0.18093
34380,2.244,28128,21288,13765,21730,-0.147717,0.011355,0.0890266
34400,2.218,28140,21298,13779,21751,-0.114211,0.00330338,0.0442711
34420,2.193,28155,21312,13796,21776,-0.116752,0.000550894,0.0532918
34440,2.156,28173,21328,13817,21804,-0.125816,-0.00292728,-0.065078
34460,2.169,28194,21348,13840,21835,-0.079369,-0.0100678,-0.06865
34480,2.179,28218,21370,13865,21868,-0.099042,-0.0139279,-0.0895419
34500,2.215,28243,21395,13892,21902,-0.0769933,-0.016388,-0.163623
34520,2.244,28271,21420,13920,21937,-0.0515819,-0.0248625,-0.302049
34540,2.253,28299,21446,13947,21971,-0.018081,-0.0333046,-0.434846
34560,2.272,28326,21471,13974,22004,0.020034,-0.0402783,-0.37192
34580,2.24,28353,21495,13999,22034,0.0543387,-0.0417183,-0.223948
34600,2.221,28376,21517,14021,22061,0.104125,-0.0325457,-0.146913
34620,2.187,28396,21535,14040,22083,0.103599,-0.0268471,-0.169167
34640,2.158,28412,21549,14054,22099,0.123209,-0.0202679,-0.207802
34660,2.152,28422,21558,14063,22110,0.135263,-0.0050229,-0.149757
34680,2.114,28427,21563,14068,22114,0.102502,0.00908462,-0.0856465
34700,2.079,28425,21562,14066,22111,0.126042,0.0187978,0.0205349
34720,2.076,28418,21556,14060,22102,0.131364,0.0175082,0.10869
34740,2.088,28406,21545,14048,22086,0.111135,0.0197295,0.21413
34760,2.095,28388,21530,14031,22064,0.0740348,0.0203652,0.195203
34780,2.095,28367,21511,14011,22038,0.0256379,0.0229892,0.0567719
34800,2.12,28344,21490,13988,22008,-0.0217905,0.0133544,-0.175609
34820,2.152,28319,21467,13963,21977,-0.00398629,-0.00486782,-0.000696027
34840,2.166,28293,21444,13938,21945,0.021772,-0.0142325,0.37197
34860,2.156,28269,21422,13914,21913,-0.0574905,-0.0161659,0.21354
34880,2.158,28247,21401,13891,21884,-0.0772872,-0.000120245,0.120132
34900,2.166,28227,21383,13872,21858,-0.116653,0.00739872,-0.0480596
34920,2.276,28212,21368,13856,21837,-0.14036,0.0225414,-0.212648
34940,2.533,28200,21357,13845,21820,-0.069363,0.0254276,-0.0736475
34960,2.812,28192,21350,13839,21810,0.00367437,0.0177411,0.48873
34980,3.038,28189,21346,13837,21805,-0.0926445,0.0126176,0.17546
35000,3.077,28189,21347,13840,21805,-0.0836729,0.0170093,0.187808
35020,3.004,28192,21350,13846,21811,-0.126095,0.0291015,0.0854276
35040,2.825,28197,21356,13856,21821,-0.145326,0.0432666,-0.362315
35060,2.631,28205,21365,13869,21834,0.00391843,0.0342448,-0.0695358
35080,2.439,28214,21375,13883,21851,0.0166239,0.00191599,0.0493393
35100,2.286,28224,21386,13899,21870,0.046443,-0.0150471,-0.00950536
35120,2.228,28234,21398,13915,21890,-0.00392323,-0.0213264,0.0712858
35140,2.207,28245,21411,13931,21911,-0.0700508,0.00453122,-0.21656
35160,2.169,28255,21423,13945,21931,0.0461251,0.0342245,-0.317224
35180,2.163,28265,21434,13959,21949,0.110336,0.035686,-0.0226933
35200,2.142,28275,21445,13971,21966,0.196465,0.0330788,0.369927
35220,2.151,28283,21455,13981,21981,0.0906029,0.0103646,0.0520551
35240,2.181,28290,21464,13990,21992,0.0313816,-0.00307035,-0.139764
35260,2.233,28296,21471,13996,22001,-0.0034457,-0.00653949,-0.161379
35280,2.243,28301,21477,14001,22006,0.0355327,-0.00519042,-0.236163
35300,2.272,28305,21481,14003,22007,0.128931,0.00617525,0.196196
35320,2.257,28306,21484,14003,22005,0.0685548,-0.0163737,0.211592
35340,2.246,28306,21484,14002,22000,0.00255967,-0.0239973,0.0260227
35360,2.233,28305,21483,13998,21992,-0.107822,-0.038385,-0.0418247
35380,2.19,28302,21481,13994,21983,-0.0964636,-0.023105,-0.307717
35400,2.145,28298,21477,13988,21972,-0.0094083,0.00849571,-0.0724338
35420,2.114,28293,21472,13982,21961,-0.0318907,0.0033998,0.0703946
35440,2.1,28288,21467,13975,21950,-0.0115736,-0.00634968,-0.132844
35460,2.082,28282,21461,13969,21940,-0.0542443,-0.0281798,0.0608041
35480,2.085,28277,21456,13964,21932,-0.0601339,-0.0290336,-0.0444398
35500,2.116,28272,21450,13959,21924,-0.010239,-0.00379643,-0.217429
35520,2.132,28267,21445,13955,21919,0.0615548,0.000502064,0.022093
35540,2.145,28263,21441,13952,21915,0.0922672,0.0145809,0.185191
35560,2.156,28259,21436,13950,21912,0.0423679,0.0168354,0.10972
35580,2.172,28256,21433,13949,21910,0.0102642,0.013331,0.0640486
35600,2.184,28253,21429,13948,21909,-0.00611213,0.0141496,-0.0558454
35620,2.149,28251,21426,13948,21908,0.00531122,0.00884471,-0.175296
35640,2.144,28249,21423,13949,21908,0.0267979,0.00866023,-0.168478
35660,2.137,28247,21421,13949,21907,0.0223131,-0.00573063,-0.137897
35680,2.221,28246,21419,13950,21907,0.00784586,-0.0312204,-0.129224
35700,2.428,28244,21417,13950,21906,0.00216185,-0.0437602,-0.157746
35720,2.709,28243,21415,13950,21904,0.0315102,-0.0334551,-0.0351609
35740,2.975,28242,21414,13949,21902,0.0511733,-0.00324752,0.0160793
35760,3.066,28241,21413,13947,21899,0.0653577,0.0299653,0.0126646
35780,3.021,28239,21411,13943,21895,0.0768442,0.0405478,0.145683
35800,2.847,28237,21409,13939,21891,0.0243484,0.0366033,0.282818
35820,2.604,28234,21407,13933,21885,-0.0232938,0.034005,0.269029
