Time(mS),ppg,LPF1,LPF2,LPF3,LPF4,Acc x(m/s2),Acc y(m/s2),Acc z(m/s2)
0,2.965,16561,10797,18182,11444,0.0147111,-0.0233893,0.0083165
20,2.894,16567,10803,18179,11438,0.00387876,-0.0319277,-0.0252312
40,2.84,16578,10812,18181,11436,-0.0391525,-0.0352456,0.00382328
60,2.835,16593,10824,18188,11440,-0.0634541,-0.032828,-0.026903
80,2.845,16610,10837,18199,11448,-0.0595359,-0.016991,0.0153859
100,2.839,16629,10851,18213,11458,-0.0644413,0.00583733,0.0466794
120,2.936,16649,10864,18229,11471,-0.0626521,0.0248921,0.0737722
140,3.011,16668,10877,18245,11486,-0.0668519,0.0436599,0.115838
160,3.073,16686,10888,18262,11501,-0.0902334,0.0565796,0.0923886
180,3.109,16702,10899,18278,11516,-0.0875651,0.0589518,0.0972302
200,3.119,16716,10908,18294,11531,-0.084156,0.0559087,0.12344
220,3.116,16729,10916,18308,11544,-0.0764081,0.0401968,0.0741092
240,3.085,16740,10923,18322,11557,-0.0459435,0.023743,0.0636713
260,3.042,16750,10930,18334,11568,-0.0303456,0.00903882,0.0301544
280,2.975,16759,10937,18346,11578,-0.00945696,-0.0107667,0.0338796
300,2.941,16768,10944,18357,11586,0.016683,-0.0181966,0.0394953
320,2.906,16777,10951,18368,11592,0.0496297,-0.0287173,0.0719998
340,2.937,16786,10959,18378,11598,0.0483668,-0.0243328,0.0597139
360,2.927,16795,10966,18387,11602,0.0285565,-0.0192034,-0.0295501
380,2.895,16804,10974,18395,11605,0.0195464,-0.0212473,-0.0418149
400,2.877,16814,10981,18403,11607,-0.00116846,-0.0273461,-0.0903699
420,2.906,16823,10989,18409,11608,-0.0205426,-0.0364863,-0.162437
440,2.881,16831,10995,18414,11608,-0.0234192,-0.0386778,-0.152603
460,2.84,16838,11000,18418,11608,-0.0169599,-0.0412802,-0.182097
480,2.889,16843,11003,18420,11608,0.00463829,-0.0435701,-0.181127
500,3.043,16846,11004,18420,11607,0.0209559,-0.0364293,-0.121235
520,3.336,16846,11004,18418,11607,0.0213983,-0.017111,-0.128301
540,3.669,16843,11001,18414,11606,0.0316943,0.00668636,-0.104976
560,3.859,16838,10996,18409,11605,0.042363,0.0299513,-0.0287014
580,3.831,16830,10990,18403,11604,0.0432681,0.039463,0.0269687
600,3.653,16820,10982,18395,11603,0.042588,0.0453017,0.0798478
620,3.449,16809,10973,18387,11602,0.0183391,0.0480584,0.106152
640,3.248,16796,10964,18379,11601,-0.00852274,0.0467469,0.109633
660,3.074,16782,10955,18370,11599,-0.0359414,0.0376968,0.0546898
680,2.922,16769,10947,18362,11597,-0.052158,0.0188845,-0.0365655
700,2.861,16757,10939,18354,11595,-0.0395299,-0.00647646,0.0089766
720,2.863,16745,10933,18348,11592,-0.0406532,-0.0245638,0.039054
740,2.85,16735,10929,18342,11589,-0.0282283,-0.031448,0.00682514
760,2.905,16727,10926,18336,11584,-0.0126932,-0.0269384,-0.0630812
780,2.971,16721,10924,18332,11579,0.0146548,-0.0171511,-0.0997292
800,3.014,16716,10924,18328,11573,0.0133641,-0.0107866,-0.0763464
820,3.109,16713,10924,18325,11567,0.027038,-0.009228,-0.040824
840,3.171,16711,10925,18322,11560,0.0362088,-0.0162991,0.064161
860,3.236,16709,10927,18320,11553,0.0239993,-0.0185604,0.0823618
880,3.22,16708,10928,18317,11546,-0.000297016,-0.020639,0.00436688
900,3.155,16707,10929,18315,11540,-0.0196951,-0.014484,-0.0992692
920,3.045,16705,10930,18313,11535,-0.010406,-0.0140817,-0.0296622
940,3,16703,10929,18312,11530,-0.00537383,-0.0122697,0.0787802
960,2.986,16700,10928,18311,11527,-0.00237362,-0.0146093,0.155676
980,2.975,16696,10926,18311,11526,0.00361705,-0.0100875,0.129227
1000,3.007,16692,10924,18312,11526,0.0106818,-0.00224476,0.0816792
1020,3.006,16689,10922,18315,11528,0.00768141,0.0119658,0.0744544
1040,2.976,16685,10919,18319,11532,-0.0131522,0.0214887,0.0521849
1060,2.964,16682,10918,18324,11536,-0.0311982,0.0172848,0.0967503
1080,2.983,16680,10917,18331,11542,-0.0376427,0.0098367,0.0751457
1100,3.003,16679,10916,18339,11548,-0.0327817,-0.0118389,0.00712693
1120,2.997,16680,10917,18348,11555,-0.0181498,-0.0325399,0.0106118
1140,3.007,16681,10919,18358,11561,-0.0265982,-0.0446283,-0.0592444
1160,3.19,16683,10921,18367,11567,-0.00733394,-0.044014,-0.025069
1180,3.533,16686,10924,18376,11572,0.000957694,-0.0293134,-0.00173305
1200,3.877,16690,10927,18384,11577,0.030667,-0.0197895,0.0227066
1220,4.005,16693,10930,18391,11581,0.0497469,-0.0123461,0.0845646
1240,3.986,16696,10933,18397,11584,0.042958,-0.00618459,-0.0416408
1260,3.87,16699,10936,18402,11587,0.027348,0.00380407,-0.0386666
1280,3.68,16700,10938,18405,11590,0.0127215,0.0189558,-0.0828497
1300,3.439,16701,10939,18408,11593,0.0122664,0.0220565,-0.0266663
1320,3.221,16701,10939,18410,11596,0.0121933,0.0145474,-0.0225212
1340,3.088,16700,10939,18412,11599,-0.000566542,0.00132165,-0.107529
1360,3.015,16698,10939,18413,11602,0.0130147,-0.0062424,-0.100791
1380,3.048,16696,10937,18414,11606,0.0139186,0.000254324,-0.133877
1400,2.99,16692,10936,18414,11609,0.0329732,0.00991903,-0.15163
1420,3.003,16688,10933,18414,11611,0.0314555,0.02238,-0.141967
1440,3.038,16683,10930,18414,11613,0.033786,0.0203161,-0.0920004
1460,3.084,16678,10927,18412,11613,0.0475136,0.0118501,0.0021259
1480,3.144,16672,10923,18409,11612,0.0172908,0.00467717,-0.0829635
1500,3.239,16666,10919,18405,11609,0.0200474,0.00848586,-0.140373
1520,3.25,16659,10915,18399,11604,0.0228074,0.0145237,-0.0825909
1540,3.218,16652,10910,18392,11598,0.0225105,0.012724,0.015668
1560,3.22,16645,10905,18384,11590,0.00696514,0.00843472,0.0518956
1580,3.165,16637,10900,18375,11581,0.00967544,0.00378018,0.0669483
1600,3.101,16630,10894,18365,11571,0.00195933,0.00743327,0.0815985
1620,3.062,16623,10889,18356,11561,-0.00602792,0.015485,0.0462328
1640,3.001,16616,10885,18347,11551,-0.0157142,0.0218843,0.11996
1660,3.022,16610,10882,18339,11543,-0.0446382,0.0225213,0.122335
1680,2.987,16606,10879,18333,11535,-0.0634716,0.0133727,0.0910949
1700,2.948,16603,10877,18329,11529,-0.0507341,0.00196211,0.0750913
1720,2.954,16601,10877,18327,11525,-0.0457312,-0.00883815,0.0232996
1740,2.971,16602,10878,18328,11524,-0.0586974,-0.0176488,-0.0323582
1760,2.965,16604,10881,18332,11524,-0.0311604,-0.0164686,0.00638733
1780,2.952,16607,10884,18338,11526,-0.0200347,-0.0129126,0.0628599
1800,2.943,16612,10889,18345,11529,-0.01422,-0.0132551,-0.026599
1820,3.057,16617,10894,18354,11534,0.0135919,-0.0105644,0.0182653
1840,3.343,16623,10899,18364,11540,0.0333867,-0.0082348,0.00910719
1860,3.73,16629,10904,18374,11546,0.0324282,-0.00233727,-0.0140353
1880,3.995,16635,10909,18383,11553,0.0370326,0.00633939,0.0804526
1900,3.999,16640,10914,18393,11560,0.0154569,0.011733,0.0590041
1920,3.986,16645,10917,18401,11566,0.0160344,0.00615507,0.0479472
1940,3.866,16648,10920,18408,11573,0.00406905,0.00674892,0.0437854
1960,3.651,16651,10923,18414,11579,0.00265714,0.000677668,0.027379
1980,3.393,16652,10924,18420,11585,-0.0161848,0.000953207,0.0943557
2000,3.22,16654,10925,18424,11591,-0.0232562,0.00890015,0.0417188
2020,3.116,16654,10926,18428,11596,-0.0119294,0.0131968,0.030062
2040,3.066,16655,10927,18432,11602,-0.0146762,0.00999949,0.0504181
2060,3.041,16655,10928,18436,11607,-0.0237924,-0.00225125,-0.047433
2080,2.997,16656,10929,18440,11612,-0.0163715,-0.00829947,-0.00487752
2100,2.987,16657,10931,18444,11617,-0.0230544,-0.0098481,-0.0449815
2120,2.99,16658,10932,18448,11621,-0.0241851,-0.010287,-0.09276
2140,3.039,16660,10934,18453,11625,-0.0218491,-0.00671286,-0.16361
2160,3.075,16661,10936,18457,11628,0.0074779,-0.00607082,-0.241331
2180,3.124,16662,10938,18460,11630,0.0346569,-0.00684396,-0.228939
2200,3.176,16662,10939,18462,11630,0.0493447,-0.00937578,-0.201507
2220,3.183,16661,10939,18463,11630,0.0563028,-0.0145101,-0.161978
2240,3.164,16659,10937,18462,11627,0.0626152,-0.00997344,-0.188968
2260,3.071,16654,10935,18459,11623,0.0730952,-0.00719909,-0.177117
2280,3.018,16648,10931,18453,11617,0.101196,-0.00998978,-0.0365802
2300,2.965,16640,10925,18445,11609,0.0697546,-0.00325491,-0.0135241
2320,2.959,16631,10918,18435,11599,0.0677382,0.00606878,0.0360168
2340,2.976,16619,10910,18423,11588,0.0931411,0.0199482,0.13123
2360,2.964,16607,10901,18409,11576,0.0542896,0.0156643,0.125592
2380,2.979,16595,10891,18394,11563,0.0201703,0.0207068,0.101865
2400,2.965,16583,10882,18379,11549,0.000137831,0.014959,0.157561
2420,2.947,16572,10874,18365,11536,-0.0349662,0.0166014,0.162723
2440,2.976,16563,10867,18352,11523,-0.0384531,0.017134,0.125838
2460,2.931,16556,10862,18341,11512,-0.0598606,0.00686711,0.143886
2480,2.915,16552,10859,18332,11502,-0.0768644,0.00319646,0.0977127
2500,3.05,16551,10859,18327,11495,-0.0701883,0.000780284,0.101381
2520,3.362,16552,10861,18324,11490,-0.0818913,0.0055352,0.0811348
2540,3.768,16557,10865,18325,11487,-0.0675306,0.0164862,0.0616943
2560,3.998,16564,10871,18328,11487,-0.0842941,0.0164368,-0.0165544
2580,3.993,16573,10878,18334,11490,-0.104177,0.0130395,-0.130157
2600,4,16584,10886,18342,11495,-0.0642941,0.00129377,-0.0977992
2620,3.981,16595,10895,18352,11502,-0.0278164,-0.00179541,-0.081105
2640,3.76,16605,10903,18362,11510,0.0336269,-0.000481529,-0.0283543
2660,3.448,16615,10911,18372,11519,0.0483017,0.0114381,0.0630784
2680,3.239,16624,10918,18382,11529,0.0458198,0.0235912,0.0457971
2700,3.109,16631,10923,18392,11540,0.0843578,0.0355079,0.0993654
2720,3.01,16637,10927,18400,11550,0.0634571,0.0469838,0.112329
2740,2.934,16640,10930,18408,11560,0.0590881,0.0525723,0.130058
2760,2.882,16642,10932,18415,11570,0.0202305,0.0560485,0.132608
2780,2.873,16643,10932,18421,11578,-0.00343131,0.0486159,0.0715323
2800,2.909,16642,10933,18427,11587,-0.0139097,0.0305902,0.0855888
2820,2.98,16642,10933,18432,11594,-0.0405908,0.0172816,-0.00855264
2840,3.055,16641,10933,18437,11600,-0.0214387,0.00489981,-0.0308348
2860,3.116,16641,10933,18442,11606,-0.0507459,-0.00176816,-0.0129108
2880,3.116,16641,10934,18447,11610,-0.0544951,-0.00960944,-0.120809
2900,3.131,16642,10936,18452,11614,-0.025722,-0.0100403,-0.129901
2920,3.092,16644,10938,18457,11616,-0.00681364,-0.0144825,-0.0402837
2940,3.032,16647,10940,18461,11618,9.27E-05,-0.00483601,-0.12418
2960,2.941,16649,10942,18465,11619,0.0166058,0.00556287,-0.070731
2980,2.891,16652,10944,18467,11618,0.00945189,0.0164518,-0.132604
3000,2.88,16654,10945,18469,11617,0.0289767,0.00852092,-0.135703
3020,2.839,16654,10945,18469,11616,0.0514978,0.00141516,0.0324441
3040,2.835,16654,10945,18468,11614,0.0436041,-0.00649369,-0.0387924
3060,2.819,16653,10943,18466,11611,0.0441397,-0.0112574,-0.0173936
3080,2.818,16650,10941,18463,11609,0.0375634,-0.00236085,0.00363367
3100,2.846,16646,10937,18459,11607,0.033462,0.00797871,-0.0988643
3120,2.875,16641,10933,18455,11604,0.0609412,0.0147445,-0.0527225
3140,2.892,16635,10928,18451,11602,0.0485145,0.00739674,0.0448745
3160,2.92,16629,10923,18446,11600,0.0197486,-0.00117216,0.00991606
3180,2.863,16622,10918,18441,11598,-0.0144857,0.00417022,-0.172979
3200,2.951,16616,10913,18436,11595,-0.0194232,0.00125734,-0.267942
3220,3.199,16610,10909,18430,11591,-0.003221,-0.00750214,-0.188494
3240,3.579,16604,10904,18423,11585,-0.000985289,-0.0118374,-0.114783
3260,3.961,16598,10900,18415,11579,0.0106461,-0.0168986,0.00176873
3280,3.996,16592,10896,18406,11570,-0.00234145,-0.0124668,-0.00945521
3300,3.996,16586,10892,18395,11560,0.0122879,-0.00164179,-0.0726484
3320,3.891,16580,10888,18383,11549,0.0666622,0.0161339,0.147022
3340,3.641,16574,10884,18370,11536,0.0399328,0.0371166,0.218702
3360,3.396,16568,10880,18356,11524,-0.0021747,0.0480375,0.237465
3380,3.186,16562,10876,18343,11511,-0.0503956,0.0501923,0.260453
3400,3.059,16558,10873,18331,11500,-0.0263143,0.0371908,0.307157
3420,2.985,16554,10871,18321,11491,-0.0357459,0.0306002,0.233148
3440,2.912,16553,10870,18315,11485,-0.0545732,0.015454,0.23755
3460,2.916,16554,10871,18312,11482,-0.0274682,0.003773,0.371069
3480,2.867,16557,10874,18315,11484,-0.0906858,0.00147929,0.246885
3500,2.906,16564,10879,18323,11490,-0.0808452,-0.0146797,0.252379
3520,2.923,16575,10887,18336,11501,-0.0824906,-0.0144644,0.172875
3540,2.959,16588,10898,18355,11516,-0.11318,-0.0209007,0.00568223
3560,3.021,16605,10911,18378,11535,-0.0670947,-0.0150878,-0.00529574
3580,3.021,16624,10927,18405,11557,-0.0886525,-0.0118809,-0.116949
3600,3.052,16644,10943,18435,11581,-0.0892057,-0.0236339,-0.122063
3620,3.038,16666,10960,18466,11607,-0.0788893,-0.0285569,-0.200476
3640,2.965,16686,10977,18498,11633,-0.000934093,-0.0356728,-0.33134
3660,2.933,16705,10992,18527,11658,0.0506418,-0.0332587,-0.255779
3680,2.898,16721,11005,18554,11681,0.0309851,-0.0283531,-0.236065
3700,2.863,16734,11015,18577,11701,0.0769789,-0.0258857,-0.256744
3720,2.812,16742,11022,18595,11718,0.083419,-0.016451,-0.204185
3740,2.824,16745,11025,18607,11732,0.108748,-0.0094425,-0.195724
3760,2.814,16742,11023,18613,11740,0.131965,-0.00696356,-0.205853
3780,2.826,16735,11017,18614,11745,0.116076,-0.0044838,-0.0942898
3800,2.833,16722,11008,18608,11745,0.0989692,-0.000229634,-0.0640958
3820,2.835,16706,10995,18598,11740,0.111643,0.000888865,-0.017554
3840,2.864,16686,10980,18583,11732,0.0974494,0.00742045,0.000730473
3860,2.828,16664,10963,18565,11721,0.0865637,0.00354354,0.0647811
3880,2.875,16642,10946,18544,11706,0.0905192,-0.00183498,0.0737479
3900,2.905,16619,10929,18521,11689,0.0721235,-0.00324608,0.104245
3920,3.004,16598,10913,18498,11671,0.0393366,-0.00468111,0.176877
3940,3.287,16579,10899,18474,11651,-0.0349958,-0.00247667,0.112749
3960,3.653,16563,10887,18452,11632,-0.0445552,-0.000529696,0.028935
3980,3.964,16551,10878,18432,11613,-0.0570393,-0.00199291,0.0415164
4000,4,16542,10872,18414,11595,-0.0782081,-0.00365388,0.00791213
4020,3.943,16538,10869,18399,11580,-0.0685438,-0.0121839,0.036135
4040,3.792,16537,10868,18387,11566,-0.109507,-0.0115066,0.0175916
4060,3.536,16539,10870,18377,11555,-0.0986579,-0.0095581,-0.0636388
4080,3.302,16544,10873,18370,11547,-0.0855385,-0.00596492,-0.0633029
4100,3.12,16551,10878,18366,11541,-0.0805696,-0.00302432,-0.112153
4120,3.027,16558,10883,18364,11537,-0.0219177,-0.0026666,-0.10237
4140,2.985,16566,10888,18363,11536,-0.00819819,-0.00487328,-0.0512932
4160,2.951,16573,10893,18364,11536,0.0134668,0.000162178,-0.0434719
4180,2.901,16579,10898,18365,11537,0.0248729,0.00514808,-0.0178753
4200,2.88,16584,10901,18368,11540,0.0576549,0.0125367,0.0725267
4220,2.896,16588,10903,18370,11543,0.0687351,0.0194796,0.115423
4240,2.985,16590,10905,18373,11547,0.0669467,0.0272183,0.14364
4260,3.074,16590,10905,18376,11551,0.0570172,0.0275058,0.117924
4280,3.099,16590,10905,18379,11555,0.0244554,0.0178294,0.129982
4300,3.113,16589,10904,18382,11558,-0.00196228,0.0119838,0.0784502
4320,3.108,16588,10904,18384,11560,-0.00244045,-0.00278817,0.115089
4340,3.059,16587,10904,18387,11562,-0.0244296,-0.0103613,0.150285
4360,3.041,16587,10904,18391,11564,-0.0501891,-0.0200601,0.0822376
4380,2.98,16588,10905,18394,11565,-0.0560697,-0.0209602,0.0469884
4400,2.896,16590,10907,18398,11565,-0.0847455,-0.0267901,-0.020348
4420,2.849,16594,10909,18402,11565,-0.0793714,-0.0307072,-0.0600915
4440,2.881,16598,10913,18406,11565,-0.0813172,-0.0257695,-0.0581622
4460,2.838,16604,10916,18410,11565,-0.0602023,-0.0184365,-0.0462325
4480,2.819,16611,10921,18415,11566,-0.0481147,-0.00639566,-0.0389299
4500,2.801,16617,10925,18420,11566,-0.0420417,-0.00251974,0.00290954
4520,2.812,16624,10929,18424,11568,-0.00931452,0.00425555,0.0519383
4540,2.84,16630,10933,18429,11570,0.021915,0.0116551,0.0582365
4560,2.81,16635,10936,18435,11573,0.0321771,0.0182037,0.0924896
4580,2.793,16639,10938,18440,11578,0.0211397,0.0220004,0.0708306
4600,2.733,16642,10940,18446,11584,0.0134291,0.0131698,0.06463
4620,2.761,16644,10942,18453,11591,0.00770272,0.00989099,-0.0154319
4640,2.908,16645,10942,18460,11599,0.0154978,0.00149401,-0.0304264
4660,3.217,16645,10943,18467,11608,0.00415919,-0.00565192,-0.0677893
4680,3.609,16644,10943,18474,11617,0.00080195,-0.013525,-0.143769
4700,3.914,16644,10944,18481,11626,0.012387,-0.0268331,-0.137565
4720,3.972,16642,10944,18487,11635,0.0262562,-0.0375512,-0.172384
4740,3.816,16640,10943,18492,11641,0.0159114,-0.0398078,-0.179595
4760,3.589,16638,10943,18494,11646,0.0215606,-0.0366211,-0.14875
4780,3.35,16635,10942,18495,11649,0.0213421,-0.0266747,-0.170794
4800,3.157,16631,10940,18492,11649,0.0282065,-0.0208599,-0.12977
4820,3.067,16626,10937,18486,11645,0.0311854,-0.0117163,-0.0718944
4840,2.985,16620,10933,18478,11639,0.0224883,-0.00715185,-0.099089
4860,2.929,16613,10929,18466,11630,0.0409718,-0.00187299,0.00883157
4880,2.866,16605,10923,18452,11619,0.0323177,0.00519692,0.0716166
4900,2.811,16596,10917,18437,11607,0.0309796,0.0122606,0.091722
4920,2.854,16587,10910,18421,11594,0.0255914,0.0219817,0.174994
4940,2.91,16578,10903,18405,11581,0.00513137,0.02317,0.255393
4960,2.929,16569,10897,18391,11569,-0.0368712,0.026455,0.2396
4980,3.004,16562,10891,18379,11559,-0.0293445,0.0269735,0.249588
5000,2.999,16558,10888,18370,11552,-0.0462205,0.0250486,0.193302
5020,3.001,16555,10886,18366,11548,-0.0723435,0.0174182,0.173663
5040,3.003,16556,10887,18367,11547,-0.0735077,0.013499,0.142839
5060,2.965,16561,10890,18372,11549,-0.0737342,0.000526403,0.197362
5080,2.92,16568,10897,18382,11555,-0.107034,-0.00581933,0.0128376
5100,2.857,16579,10906,18396,11563,-0.0896644,-0.0234291,-0.0822211
5120,2.784,16593,10917,18414,11574,-0.0860851,-0.0337152,-0.00788951
5140,2.747,16608,10931,18435,11587,-0.0906447,-0.0385431,-0.251305
5160,2.765,16625,10945,18457,11601,-0.00669532,-0.0447054,-0.134402
5180,2.726,16642,10960,18481,11616,0.00614244,-0.0348115,-0.0314926
5200,2.723,16658,10975,18505,11632,0.0366484,-0.0235628,-0.0653945
5220,2.737,16674,10989,18528,11647,0.0504348,-0.00216093,-0.0337576
5240,2.761,16687,11002,18551,11662,0.07841,0.0176531,0.0109533
5260,2.748,16698,11014,18571,11676,0.111966,0.031985,0.0981999
5280,2.77,16706,11023,18591,11690,0.0957453,0.0337822,0.149946
5300,2.747,16712,11031,18608,11703,0.0537216,0.0256399,0.0853578
5320,2.733,16715,11036,18624,11715,0.00651403,0.0176279,-0.0602418
5340,2.748,16716,11040,18638,11727,-0.0130878,0.00470947,-0.0928419
5360,2.828,16716,11043,18650,11737,0.00878982,-0.00586123,-0.159795
5380,3.116,16713,11044,18661,11747,0.0144121,-0.0159397,-0.163531
5400,3.509,16710,11044,18669,11754,0.0127495,-0.0188574,-0.102398
5420,3.863,16706,11044,18675,11760,0.00950045,-0.0178858,-0.162616
5440,3.988,16702,11043,18678,11763,0.00154506,-0.0162404,-0.241302
5460,3.922,16697,11041,18678,11762,0.00346929,-0.00323936,-0.341085
5480,3.714,16691,11038,18674,11758,0.0177758,-0.00415252,-0.295105
5500,3.48,16684,11033,18665,11750,0.0122998,-0.0049654,-0.215492
5520,3.27,16676,11028,18651,11738,0.0397348,-0.00998531,-0.108773
5540,3.105,16667,11021,18634,11722,0.072526,-0.0142377,0.0231208
5560,3.004,16657,11013,18612,11702,0.062521,-0.0140859,0.0206529
5580,2.93,16646,11004,18586,11680,0.0933316,-0.000949555,0.104862
5600,2.861,16633,10993,18558,11656,0.0921629,0.0139061,0.2528
5620,2.839,16621,10982,18530,11632,0.0304772,0.0329603,0.258694
5640,2.821,16608,10971,18501,11608,-0.0307503,0.0369582,0.153255
5660,2.79,16596,10960,18475,11586,-0.0231261,0.0334385,0.0949613
5680,2.846,16586,10951,18451,11566,-0.0455912,0.0229597,0.0353933
5700,2.934,16578,10943,18432,11550,-0.0642096,0.00657434,0.00456913
5720,2.985,16572,10937,18417,11538,-0.0461333,-0.00807293,0.0960206
5740,3.024,16569,10933,18408,11530,-0.0708832,-0.0164561,0.125263
5760,3.01,16570,10932,18405,11526,-0.0556276,-0.0219125,0.0840835
5780,2.961,16573,10933,18406,11526,-0.046955,-0.0159745,0.0890702
5800,2.901,16580,10936,18411,11529,-0.0740672,-0.00348266,-0.0516684
5820,2.875,16588,10941,18419,11534,-0.0567456,0.00613167,-0.145875
5840,2.861,16597,10947,18430,11541,-0.0456668,0.0114894,-0.101997
5860,2.793,16607,10953,18441,11548,-0.0377511,0.00648874,-0.117411
5880,2.759,16616,10959,18451,11556,-0.0177073,-0.00605825,-0.210534
5900,2.779,16624,10963,18460,11562,0.0376696,-0.022648,-0.194514
5920,2.776,16630,10967,18467,11566,0.0518963,-0.0328561,-0.0808324
5940,2.745,16634,10968,18470,11569,0.0607155,-0.0338396,-0.0367625
5960,2.747,16634,10967,18471,11570,0.0658657,-0.023075,-0.100638
5980,2.752,16632,10964,18468,11569,0.105107,-0.0108511,0.0802945
6000,2.741,16627,10959,18463,11566,0.124325,0.00787036,0.292843
6020,2.787,16620,10953,18456,11562,0.0927906,0.0259209,0.357694
6040,2.797,16612,10946,18448,11558,0.0282325,0.0555872,0.349512
6060,2.791,16604,10939,18440,11553,0.0521628,0.0678986,0.458453
6080,2.811,16597,10933,18433,11550,0.012538,0.0668113,0.44499
6100,2.982,16591,10928,18428,11548,-0.0662969,0.0508581,0.210056
6120,3.313,16589,10926,18427,11548,-0.0737239,0.0171026,0.222005
6140,3.693,16589,10926,18429,11551,-0.150381,-0.00413175,0.0611472
6160,3.916,16593,10929,18435,11557,-0.116379,-0.0320283,0.0129178
6180,3.93,16601,10936,18445,11565,-0.0610435,-0.0383024,0.0296877
6200,3.753,16613,10945,18459,11577,-0.0931739,-0.0369568,-0.026788
6220,3.494,16628,10956,18476,11590,-0.093128,-0.0303536,-0.134857
6240,3.246,16645,10969,18495,11606,-0.0741112,-0.0202401,-0.179864
6260,3.032,16663,10983,18515,11623,-0.128411,-0.0147852,-0.455063
6280,2.909,16680,10995,18534,11640,-0.0406255,-0.0232793,-0.546796
6300,2.824,16696,11006,18551,11655,-0.0197969,-0.024314,-0.415328
6320,2.803,16709,11014,18564,11669,-0.0334974,-0.0192049,-0.491895
6340,2.79,16717,11018,18573,11679,0.0661038,-0.0186609,-0.370813
6360,2.808,16719,11018,18575,11685,0.0733177,-0.0163243,-0.342458
6380,2.829,16715,11012,18571,11686,0.136949,-0.00792348,-0.316095
6400,2.873,16705,11000,18560,11682,0.13758,0.000748444,-0.271934
6420,2.908,16688,10984,18542,11671,0.0685301,0.0162528,-0.260875
6440,3.004,16665,10962,18517,11655,0.099926,0.0286197,-0.159638
6460,3.066,16638,10937,18487,11633,0.101839,0.0326541,-0.0652786
6480,3.115,16606,10909,18451,11606,0.0808488,0.0385459,0.0297317
6500,3.109,16572,10880,18412,11576,0.137279,0.039208,0.212499
6520,3.08,16537,10850,18372,11542,0.110721,0.0387319,0.289413
6540,3.039,16504,10822,18331,11507,0.118257,0.0396546,0.3154
6560,2.966,16473,10797,18292,11471,0.142496,0.0279954,0.437145
6580,2.912,16446,10776,18256,11437,0.0964428,0.0121693,0.356128
6600,2.874,16424,10759,18225,11406,0.0933926,0.00422895,0.410318
6620,2.819,16409,10748,18199,11379,0.0441363,-0.00186163,0.546589
6640,2.77,16401,10743,18181,11358,-0.00265668,-0.00311907,0.392149
6660,2.706,16401,10744,18170,11343,-0.00958644,0.000274171,0.392869
6680,2.689,16408,10750,18168,11335,-0.100429,-0.00322608,0.311666
6700,2.726,16422,10762,18175,11335,-0.108494,-0.00818931,0.245015
6720,2.74,16443,10779,18190,11343,-0.135333,-0.0101098,0.178923
6740,2.719,16469,10800,18212,11357,-0.145287,-0.0174184,0.06914
6760,2.719,16499,10823,18242,11379,-0.122965,-0.0279819,-0.0213702
6780,2.735,16532,10848,18277,11407,-0.162409,-0.0351481,-0.130364
6800,2.77,16567,10874,18315,11439,-0.151693,-0.020668,-0.175988
6820,2.84,16601,10899,18356,11474,-0.129349,-0.0190524,-0.175321
6840,3.084,16633,10922,18398,11510,-0.148688,-0.0245471,-0.297727
6860,3.512,16661,10943,18437,11547,-0.13873,-0.0245997,-0.368114
6880,3.933,16686,10960,18472,11582,-0.101008,-0.023481,-0.333083
6900,3.999,16704,10972,18503,11613,-0.0530565,-0.0179806,-0.299146
6920,3.999,16716,10980,18526,11640,0.016913,-0.00147008,-0.264891
6940,3.95,16722,10983,18542,11661,0.00819877,0.00388404,-0.25673
6960,3.723,16721,10981,18550,11676,0.0679141,0.00238184,-0.218337
6980,3.445,16713,10974,18549,11684,0.103404,0.000134588,-0.218386
7000,3.214,16700,10963,18540,11684,0.110625,-0.0146572,-0.208353
7020,3.071,16682,10948,18523,11678,0.197724,-0.0194381,0.0219678
7040,2.982,16660,10931,18501,11665,0.140383,-0.0170336,0.108985
7060,2.889,16636,10912,18473,11647,0.0630809,-0.0120514,-0.0654838
7080,2.853,16611,10892,18442,11625,0.121395,0.00208903,0.111482
7100,2.849,16586,10872,18410,11599,0.08268,-0.00431056,0.0377064
7120,2.845,16562,10853,18378,11572,0.0771637,-0.0200338,-0.0766127
7140,2.93,16540,10836,18346,11544,0.102337,-0.022725,0.0558723
7160,3.021,16520,10820,18317,11517,0.0690563,-0.0377861,0.273346
7180,3.066,16504,10808,18292,11492,0.0467711,-0.0238087,0.179677
7200,3.094,16492,10798,18270,11470,-0.00369846,-0.00339444,0.0787906
7220,3.05,16484,10791,18253,11451,-0.00459583,0.00460527,0.0963914
7240,2.987,16479,10788,18241,11436,-0.0472018,0.0173898,0.0696785
7260,2.922,16478,10787,18234,11425,-0.0484228,0.0227244,0.0623936
7280,2.852,16480,10789,18231,11419,-0.046716,0.0135057,0.151135
7300,2.84,16485,10793,18232,11417,-0.12509,0.00601956,0.0749108
7320,2.825,16492,10799,18237,11419,-0.118882,0.0101442,0.0578731
7340,2.784,16501,10806,18245,11425,-0.106729,0.0203693,0.107787
7360,2.768,16511,10814,18256,11434,-0.0905527,0.0284054,0.124598
7380,2.766,16521,10823,18269,11446,-0.0619498,0.0379532,0.148156
7400,2.8,16533,10833,18284,11459,-0.0628108,0.0212099,0.195635
7420,2.772,16545,10843,18300,11474,-0.0807151,0.00732708,0.128406
7440,2.782,16557,10853,18316,11490,-0.0662609,-0.0056343,-0.000535065
7460,2.783,16568,10863,18334,11505,-0.026636,-0.00901785,-0.0501799
7480,2.812,16580,10873,18351,11521,-0.00164919,-0.0051093,-0.0869183
7500,2.849,16591,10882,18367,11535,0.0177585,-0.00546468,-0.0915774
7520,2.859,16601,10890,18382,11548,0.0638038,-0.0177117,-0.07554
7540,2.924,16610,10898,18396,11559,0.0477539,-0.0356416,-0.137402
7560,3.105,16617,10904,18407,11568,0.0458438,-0.0360064,-0.199985
7580,3.459,16623,10908,18416,11575,0.0687349,-0.0256886,-0.180693
7600,3.855,16627,10911,18421,11579,0.0825404,-0.00808686,-0.14024
7620,3.999,16628,10911,18423,11581,0.109973,0.00520229,-0.0799534
7640,4.003,16627,10909,18422,11580,0.0947975,0.00379036,-0.0448598
7660,3.985,16623,10904,18417,11578,0.0828402,-0.00738381,-0.0467492
7680,3.792,16617,10898,18410,11573,0.0675702,-0.0122054,0.0311614
7700,3.456,16608,10889,18399,11567,0.0419699,-0.00370432,0.0251204
7720,3.252,16598,10879,18387,11559,0.0557274,0.00499392,0.0921524
7740,3.062,16587,10868,18373,11551,-0.00194766,0.00794591,0.162558
7760,2.966,16575,10858,18359,11543,-0.031652,0.0052646,0.101625
7780,2.912,16564,10847,18346,11535,-0.0392948,-6.82E-05,0.0706377
7800,2.832,16554,10838,18334,11528,-0.0687937,-0.00402085,0.0710509
7820,2.846,16545,10831,18324,11522,-0.0547551,-0.0119561,0.0867678
7840,2.864,16539,10826,18316,11517,-0.0968298,-0.0120387,-0.0167274
7860,2.934,16534,10824,18312,11514,-0.0989078,-0.0142263,-0.057775
7880,3,16532,10823,18309,11512,-0.0898035,-0.0189424,-0.0986558
7900,3.027,16532,10825,18310,11512,-0.0868915,-0.0241023,-0.195498
7920,3.087,16534,10828,18312,11512,-0.022259,-0.0265642,-0.125064
7940,3.067,16537,10833,18315,11513,-0.00241842,-0.0214386,-0.135746
7960,3.073,16541,10838,18318,11514,0.015043,-0.0127548,-0.15466
7980,2.973,16545,10843,18322,11514,0.0508918,-0.00164223,-0.0831539
8000,2.926,16547,10846,18325,11514,0.0668057,0.00978033,-0.0781023
8020,2.854,16549,10848,18326,11513,0.105482,0.0203108,0.0091304
8040,2.842,16548,10848,18326,11512,0.113077,0.0350006,0.110124
8060,2.825,16546,10847,18324,11509,0.102454,0.0439855,0.161718
8080,2.812,16542,10843,18321,11506,0.0740681,0.0511807,0.181574
8100,2.762,16537,10838,18317,11502,0.0341441,0.0512001,0.143583
8120,2.773,16531,10833,18313,11498,0.0227082,0.0456329,0.164713
8140,2.763,16525,10827,18309,11494,-0.0138079,0.037293,0.183564
8160,2.811,16519,10821,18305,11491,-0.0110128,0.0259156,0.190668
8180,2.836,16515,10817,18304,11489,-0.0434292,0.0140397,0.162864
8200,2.853,16512,10814,18304,11488,-0.0831825,0.00509698,0.0974601
8220,2.853,16512,10814,18306,11488,-0.0944604,0.00282136,0.0659617
8240,2.847,16515,10816,18310,11490,-0.110366,0.00261944,0.036929
8260,2.839,16520,10821,18317,11493,-0.086764,0.00114314,0.0319785
8280,3.004,16528,10827,18325,11497,-0.0818562,-0.000801006,0.00295408
8300,3.365,16537,10836,18334,11502,-0.0918949,-0.00441411,-0.0296545
8320,3.792,16548,10846,18344,11508,-0.110685,-0.00759509,-0.122899
8340,3.998,16560,10856,18354,11515,-0.0692982,-0.0140919,-0.0776778
8360,3.986,16571,10867,18364,11522,-0.0156846,-0.0133359,-0.0827691
8380,3.865,16582,10877,18373,11529,0.0252443,-0.0121942,-0.124658
8400,3.631,16591,10885,18380,11537,0.0466091,-0.00575972,-0.128626
8420,3.351,16597,10891,18387,11543,0.0449959,-0.00805548,-0.185722
8440,3.154,16601,10895,18391,11550,0.0789934,-0.011907,-0.141172
8460,3.034,16602,10897,18394,11556,0.0819418,-0.00238273,-0.137002
8480,2.895,16600,10896,18395,11560,0.122011,0.00387108,-0.0852474
8500,2.846,16596,10893,18394,11564,0.134464,0.00876606,-0.0201707
8520,2.803,16588,10887,18391,11567,0.121003,0.00809239,0.00594385
8540,2.804,16579,10880,18387,11567,0.106302,0.0068653,0.0114324
8560,2.819,16569,10872,18381,11566,0.0972169,0.00912158,0.0518451
8580,2.891,16557,10863,18374,11563,0.0904456,0.0178564,0.096997
8600,2.965,16546,10854,18366,11558,0.0205731,0.0167998,0.0775546
8620,3.056,16535,10846,18357,11552,-0.022214,0.0123422,0.048388
8640,3.102,16525,10838,18348,11543,-0.0562825,0.00091837,-0.0156467
8660,3.105,16517,10832,18338,11533,-0.0645059,-0.00835135,-0.048377
8680,3.064,16510,10827,18328,11521,-0.0776053,-0.0162427,-0.0870319
8700,3.024,16505,10824,18319,11509,-0.0616656,-0.0319654,-0.0236432
8720,2.968,16502,10822,18310,11497,-0.0690757,-0.0311672,0.0146114
8740,2.903,16501,10822,18302,11484,-0.0702859,-0.0212718,-0.0234847
8760,2.85,16502,10824,18294,11473,-0.0551866,-0.00719211,-0.0156185
8780,2.805,16504,10826,18288,11462,-0.0189064,0.0123708,0.0289775
8800,2.763,16506,10829,18283,11454,-0.000754852,0.0260485,0.0471948
8820,2.728,16510,10833,18280,11447,-0.0103843,0.0362718,0.0482732
8840,2.681,16513,10837,18278,11443,0.00173214,0.0417312,0.00557471
8860,2.707,16517,10840,18278,11441,0.00719991,0.0379358,-0.012679
8880,2.705,16520,10844,18280,11442,0.0257603,0.0295941,-0.0435804
8900,2.733,16523,10846,18283,11444,0.039786,0.018917,-0.0181012
8920,2.784,16525,10848,18286,11449,0.0276799,0.013401,-0.0207151
8940,2.783,16527,10850,18291,11455,0.0144003,0.00806506,-0.104219
8960,2.789,16528,10850,18296,11461,0.0131073,0.009096,-0.136713
8980,2.831,16527,10850,18300,11467,0.00102717,0.0074908,-0.235317
9000,3.038,16526,10849,18303,11472,0.0430512,0.00577821,-0.135224
9020,3.417,16524,10847,18305,11476,0.0573621,0.00809852,0.0317142
9040,3.891,16521,10844,18305,11477,0.0364137,0.0106602,0.0323302
9060,3.995,16517,10841,18302,11476,0.0385862,0.0201282,0.0664674
9080,4.002,16513,10837,18297,11473,-0.0126095,0.0254924,0.0276964
9100,3.953,16507,10833,18291,11467,0.0102456,0.025347,0.11439
9120,3.707,16502,10828,18282,11459,-0.0214977,0.0222951,0.185946
9140,3.421,16496,10824,18273,11450,-0.0270803,0.0173994,0.37733
9160,3.196,16492,10820,18263,11441,-0.0395435,0.0236734,0.317752
9180,2.992,16488,10818,18256,11433,-0.0426173,0.0213351,0.411943
9200,2.917,16487,10817,18251,11428,-0.00603235,0.033727,0.613695
9220,2.821,16489,10819,18250,11426,-0.0964136,0.0373843,0.302279
9240,2.755,16494,10823,18254,11429,-0.0734911,0.0311378,0.330398
9260,2.712,16503,10830,18264,11437,-0.063652,0.0416259,0.282342
9280,2.698,16516,10840,18280,11450,-0.102257,0.0177772,-0.0260974
9300,2.755,16533,10853,18302,11468,-0.129429,-0.00495576,-0.277768
9320,2.849,16553,10869,18330,11492,-0.0853476,-0.0241997,-0.111603
9340,2.896,16575,10886,18361,11519,-0.139591,-0.0285809,-0.354483
9360,2.992,16599,10904,18395,11548,-0.0941226,-0.0362903,-0.657964
9380,3.017,16622,10921,18429,11577,0.018646,-0.0178753,-0.30735
9400,2.951,16643,10937,18461,11606,-0.0670353,-0.00634316,-0.527386
9420,2.931,16660,10949,18489,11630,0.0525673,0.0143969,-0.408527
9440,2.871,16672,10958,18511,11650,0.0691962,0.0343356,-0.322051
9460,2.84,16679,10961,18525,11664,0.104196,0.0401746,-0.319106
9480,2.824,16679,10959,18531,11671,0.154433,0.0585698,-0.276057
9500,2.808,16671,10950,18527,11669,0.121542,0.0386852,-0.255124
9520,2.808,16656,10937,18514,11660,0.127253,0.0269992,-0.183716
9540,2.791,16635,10918,18493,11643,0.0932217,-0.00841026,-0.109754
9560,2.814,16609,10894,18464,11619,0.124822,-0.0179764,0.0194567
9580,2.805,16578,10868,18430,11590,0.12907,-0.0291643,0.0822938
9600,2.846,16546,10840,18392,11557,0.121899,-0.0085561,0.162904
9620,2.845,16513,10812,18353,11521,0.125917,0.00451241,0.263091
9640,2.842,16481,10786,18314,11485,0.0935149,0.0141035,0.236845
9660,2.829,16453,10763,18277,11450,0.098512,0.0126152,0.227309
9680,2.833,16428,10743,18244,11417,0.0708308,0.00785617,0.22811
9700,2.968,16409,10728,18215,11388,0.0257428,-0.0116964,0.19388
9720,3.243,16396,10718,18192,11363,-0.0176029,-0.0225268,0.198472
9740,3.662,16389,10714,18175,11344,-0.0337904,-0.0304515,0.170341
9760,3.978,16389,10715,18164,11330,-0.0594147,-0.0395088,0.138874
9780,3.999,16393,10720,18158,11321,-0.086171,-0.0434573,0.0989792
9800,3.949,16403,10729,18159,11319,-0.0901847,-0.0448885,0.0926449
9820,3.73,16416,10741,18163,11321,-0.0935022,-0.041674,0.0881803
9840,3.492,16432,10756,18172,11329,-0.103482,-0.0267263,0.0617424
9860,3.224,16451,10772,18185,11341,-0.111223,-0.00852296,0.0288204
9880,3.062,16470,10789,18201,11358,-0.110915,0.011447,0.0206721
9900,2.931,16490,10805,18218,11377,-0.0877543,0.019169,0.0363453
9920,2.825,16508,10820,18237,11399,-0.0819435,0.0161497,-0.000330736
9940,2.765,16525,10834,18257,11422,-0.0755411,0.00939259,-0.0490839
9960,2.74,16540,10847,18277,11445,-0.0486117,-0.0034232,-0.0646017
9980,2.734,16553,10858,18296,11469,-0.0131069,-0.0171815,-0.0291433
10000,2.812,16564,10866,18315,11492,0.0283609,-0.0251796,-0.103985
10020,2.896,16572,10873,18332,11513,0.0667453,-0.0319,-0.108748
10040,3.001,16577,10877,18346,11531,0.0724872,-0.0309594,-0.0848803
10060,3.057,16581,10880,18359,11546,0.0904288,-0.0264689,-0.111339
10080,3.038,16582,10881,18368,11559,0.0960116,-0.0255259,-0.106725
10100,3.025,16581,10880,18375,11567,0.106283,-0.0226115,-0.0921216
10120,2.979,16578,10878,18377,11571,0.116975,-0.0254644,-0.0690056
10140,2.912,16573,10874,18377,11572,0.0909774,-0.0230348,-0.0566387
10160,2.842,16567,10868,18373,11568,0.0906292,-0.0187545,-0.0552164
10180,2.797,16560,10862,18366,11562,0.0808279,-0.0163576,-0.0224481
10200,2.807,16552,10854,18357,11552,0.0559448,-0.013522,0.0192535
10220,2.752,16543,10846,18345,11540,0.000211448,-0.0130158,-0.0218062
10240,2.724,16534,10837,18332,11526,-0.0501361,-0.00976422,-0.0958348
10260,2.71,16524,10828,18317,11511,-0.0518179,-0.00624098,-0.107592
10280,2.751,16515,10819,18302,11495,-0.0613371,0.000598436,-0.0911027
10300,2.735,16507,10810,18287,11479,-0.0410429,0.00677313,-0.0279734
10320,2.717,16498,10801,18273,11464,-0.0641034,0.00829425,-0.0997174
10340,2.74,16491,10794,18259,11449,-0.0539393,0.00806224,-0.0766807
10360,2.744,16484,10787,18247,11436,-0.0231549,0.0116223,0.059071
10380,2.738,16478,10781,18236,11424,0.00824496,0.0168,0.108808
10400,2.751,16473,10776,18227,11414,0.0174267,0.0232801,0.20933
10420,2.965,16469,10773,18219,11406,-0.00354968,0.0315105,0.19677
10440,3.375,16467,10771,18213,11399,-0.0171427,0.0340707,0.185638
10460,3.737,16465,10770,18209,11394,-0.00899252,0.0412055,0.182775
10480,3.943,16465,10771,18207,11391,-0.00802139,0.0312763,0.166161
10500,3.928,16466,10773,18206,11390,-0.0396269,0.0163401,0.160723
10520,3.722,16468,10777,18208,11391,-0.035756,0.0026271,0.177141
10540,3.466,16473,10783,18211,11394,-0.0302374,-0.00824563,0.164575
10560,3.252,16479,10789,18216,11399,-0.032727,-0.0104725,0.128763
10580,3.048,16487,10798,18224,11406,-0.0419351,-0.00834369,0.0875416
10600,2.943,16496,10807,18233,11415,-0.0423034,-0.00503859,0.0820986
10620,2.857,16507,10817,18245,11425,-0.0553151,-0.000800576,-0.0108095
10640,2.798,16519,10828,18258,11437,-0.0603176,-0.00514131,-0.0582304
10660,2.762,16531,10838,18271,11451,-0.068364,-0.0164026,-0.133964
10680,2.749,16543,10849,18285,11464,-0.0450992,-0.0247578,-0.207241
10700,2.762,16555,10858,18299,11478,0.000510436,-0.0284316,-0.146761
10720,2.833,16565,10866,18312,11492,0.0311254,-0.0238292,-0.123724
10740,2.91,16573,10871,18323,11505,0.0413252,-0.0164413,-0.125358
10760,2.95,16578,10875,18332,11516,0.0329968,-0.0120481,-0.136894
10780,2.948,16581,10876,18339,11526,0.0744874,-0.00601175,-0.0895862
10800,2.941,16581,10874,18343,11533,0.0765162,-0.000281688,-0.0650665
10820,2.871,16577,10870,18344,11538,0.0656472,0.00818525,-0.0990944
10840,2.831,16571,10864,18343,11540,0.079257,0.0122834,-0.0516427
10860,2.817,16563,10855,18338,11539,0.0485777,0.0080329,-0.00950227
10880,2.791,16552,10846,18332,11536,0.0410084,-0.000257593,-0.0558041
10900,2.735,16541,10835,18323,11530,0.0368266,-0.00815634,-0.0492934
10920,2.733,16528,10823,18312,11522,0.0286985,-0.0162482,-0.107386
10940,2.712,16514,10812,18300,11511,0.0205858,-0.0299727,-0.0553893
10960,2.738,16501,10800,18287,11499,-0.0161287,-0.0293697,-0.0482635
10980,2.731,16489,10790,18273,11484,0.0056971,-0.0305419,0.0656437
11000,2.745,16478,10781,18258,11468,-0.0314713,-0.0180972,0.05877
11020,2.791,16468,10773,18244,11452,-0.0275339,-0.00950882,-0.00214703
11040,2.79,16460,10767,18229,11434,-0.0305771,0.00935009,0.226965
11060,2.751,16454,10763,18216,11417,-0.0555386,0.0236173,0.223159
11080,2.747,16449,10760,18204,11401,-0.0543577,0.0268151,0.0928089
11100,2.789,16447,10758,18193,11386,-0.0871385,0.0286316,0.0472288
11120,2.962,16446,10759,18184,11374,-0.0417547,0.0214582,0.190173
11140,3.346,16447,10760,18177,11364,-0.0746442,0.0105776,0.107449
11160,3.737,16450,10764,18173,11357,-0.0780356,0.0101898,0.00180148
11180,3.957,16455,10768,18171,11354,-0.0433051,0.0161002,0.0319963
11200,3.937,16462,10773,18172,11355,-0.0449665,0.0108071,-0.0311676
11220,3.707,16469,10779,18176,11359,-0.0047146,0.00911063,-0.0364853
11240,3.471,16477,10786,18182,11366,0.0197818,0.0111436,-0.00404122
11260,3.234,16485,10792,18190,11376,0.0290521,0.0200246,-0.079607
11280,3.024,16494,10798,18198,11388,0.0285183,0.0274249,-0.0642916
11300,2.924,16501,10804,18208,11402,0.0387995,0.0295494,-0.0193373
11320,2.884,16508,10809,18217,11415,0.0374539,0.0310443,-0.074967
11340,2.79,16513,10812,18225,11428,0.0242212,0.0256045,-0.113712
11360,2.766,16517,10813,18232,11440,0.019696,0.0165171,-0.0847946
11380,2.726,16518,10813,18237,11449,0.0178147,0.00480496,-0.0808499
11400,2.758,16518,10811,18239,11456,0.0515072,0.000141759,0.054643
11420,2.805,16516,10808,18239,11460,0.0339836,-0.000133882,0.0687767
11440,2.871,16512,10803,18238,11462,0.0262414,0.00939875,0.0293885
11460,2.941,16507,10797,18235,11461,0.0152507,0.0205012,0.113701
11480,2.976,16502,10791,18230,11458,-0.0163833,0.0299781,0.0990148
11500,2.94,16497,10784,18225,11453,-0.0352613,0.0236677,0.0858367
11520,2.899,16492,10778,18221,11449,-0.0512335,0.0106958,0.0887385
11540,2.864,16488,10774,18217,11444,-0.0558179,0.00186575,-0.00593542
11560,2.784,16486,10770,18214,11441,-0.0585799,-0.0158139,0.0568459
11580,2.763,16485,10768,18213,11438,-0.0747938,-0.0237453,-0.0559586
11600,2.721,16486,10768,18214,11437,-0.0465688,-0.0360196,-0.0567746
11620,2.703,16488,10770,18216,11438,-0.0222402,-0.0349643,-0.00280845
11640,2.667,16492,10772,18219,11440,-0.00414891,-0.0383131,-0.102174
11660,2.661,16496,10776,18224,11444,0.00535619,-0.034707,-0.126592
11680,2.647,16501,10780,18229,11449,0.049828,-0.0356408,-0.0814567
11700,2.682,16506,10784,18234,11454,0.065769,-0.0299827,-0.0332014
11720,2.689,16510,10788,18239,11460,0.0464306,-0.0196531,-0.0740814
11740,2.719,16514,10791,18243,11465,0.0710995,-0.0123452,-0.0557742
11760,2.731,16517,10792,18246,11469,0.0469632,-0.00970562,-0.0685016
11780,2.714,16518,10793,18248,11472,0.061872,-0.0160188,-0.0279487
11800,2.712,16517,10791,18248,11473,0.0480565,-0.0144347,-0.0418181
11820,2.831,16515,10789,18247,11473,0.019792,-0.0123003,-0.081028
11840,3.158,16511,10784,18244,11471,0.0247002,-0.00893562,-0.101221
11860,3.546,16507,10779,18239,11467,0.00798479,-0.00244428,-0.116855
11880,3.911,16501,10773,18232,11462,0.0225607,-0.00245289,-0.0869195
11900,3.992,16494,10766,18224,11455,0.0154571,-0.00433221,-0.0485938
11920,3.904,16487,10760,18215,11446,-0.000295783,-0.00589532,-0.0663173
11940,3.686,16479,10753,18205,11436,0.000210671,-0.00459555,-0.03521
11960,3.43,16471,10746,18194,11425,0.00163033,-0.0031631,-0.0359695
11980,3.236,16464,10740,18183,11413,0.0141804,-0.00381579,0.0953992
12000,3.055,16457,10735,18171,11401,-0.0139478,0.000896948,0.0817943
12020,2.972,16450,10731,18160,11389,-0.0273029,0.00125185,0.0885119
12040,2.884,16445,10727,18150,11378,-0.0278198,0.00437474,0.15497
12060,2.789,16441,10725,18142,11369,-0.0326875,0.0024322,0.155828
12080,2.756,16437,10724,18135,11361,-0.0468101,0.0019382,0.166564
12100,2.779,16436,10724,18130,11356,-0.0487767,-0.000565008,0.137087
12120,2.808,16436,10726,18128,11353,-0.04589,-0.00535185,0.13408
12140,2.909,16438,10730,18129,11353,-0.0473567,-0.00330458,0.121635
12160,2.94,16442,10735,18133,11356,-0.0339001,-0.00834331,0.118638
12180,2.986,16448,10741,18141,11363,-0.0334999,-0.0095858,0.0963228
12200,2.971,16456,10749,18151,11373,-0.0298507,-0.0101172,0.087458
12220,2.957,16466,10758,18164,11385,-0.0156323,-0.00633949,0.08697
12240,2.905,16476,10768,18179,11399,-0.034333,-0.00455381,0.032085
12260,2.846,16488,10779,18195,11415,-0.0372176,-0.000208274,-0.0858933
12280,2.777,16500,10790,18213,11432,-0.0163694,-0.00535432,-0.0762293
12300,2.734,16512,10801,18230,11449,-0.0036878,-0.00953011,-0.042187
12320,2.727,16523,10810,18247,11465,0.00564403,-0.0107132,-0.100317
12340,2.735,16533,10819,18263,11481,0.037291,-0.00824971,-0.0264438
12360,2.724,16541,10825,18276,11494,0.0548769,-0.000294342,-0.019385
12380,2.723,16547,10830,18288,11506,0.0568852,0.0075228,-0.0255819
12400,2.744,16551,10834,18297,11515,0.0482518,0.0175261,0.00352867
12420,2.72,16553,10835,18304,11522,0.0322608,0.0212025,-0.0269306
12440,2.735,16553,10834,18308,11526,0.0116587,0.0231054,-0.00814064
12460,2.74,16552,10832,18310,11529,-0.0142854,0.0206698,-0.0849189
12480,2.755,16549,10828,18310,11529,-0.0192922,0.0123446,-0.0786188
12500,2.773,16544,10824,18308,11528,-0.0255483,0.00561731,-0.0841803
12520,2.755,16539,10818,18305,11526,-0.0166277,-0.00395483,-0.104629
12540,2.817,16533,10812,18301,11522,0.000846845,-0.00574826,-0.0628011
12560,3.077,16527,10806,18295,11517,0.013149,-0.00586647,-0.0740492
12580,3.522,16521,10800,18288,11512,0.021255,-0.00220332,-0.0803777
12600,3.961,16515,10794,18281,11505,0.0340123,0.00669104,-0.0699522
12620,4.002,16509,10788,18273,11498,0.0195298,0.01752,-0.054681
12640,3.999,16504,10782,18264,11490,0.0249476,0.0213811,-0.0248191
12660,3.942,16498,10776,18254,11482,0.0238856,0.0224712,0.0102357
12680,3.73,16493,10770,18244,11473,0.0149278,0.0165661,0.0446565
12700,3.444,16488,10765,18234,11464,0.00556457,0.011583,0.0661837
12720,3.229,16483,10760,18224,11456,0.00298108,0.00893407,0.0804809
12740,3.057,16479,10755,18214,11448,-0.00883701,0.0091462,0.0855239
12760,2.938,16476,10751,18206,11441,-0.0229925,0.00945053,0.0742778
12780,2.874,16473,10748,18198,11435,-0.0305517,0.00932257,0.0572948
12800,2.761,16471,10745,18192,11430,-0.0287897,0.00735011,0.0398988
12820,2.761,16470,10744,18188,11427,-0.0286978,0.00412971,0.0227222
12840,2.807,16470,10745,18185,11426,-0.0274787,0.00226043,0.00820204
12860,2.882,16472,10746,18185,11426,-0.0237065,-0.00258992,0.00232081
12880,2.93,16474,10749,18186,11428,-0.0132696,-0.00355744,-0.00164639
12900,2.965,16477,10752,18189,11431,-0.00506469,-0.00536835,-0.00317634
12920,3.007,16481,10757,18193,11435,0.000643012,-0.0073648,-0.00843613
12940,3.011,16486,10762,18198,11439,0.00391105,-0.00714615,-0.0126058
12960,2.996,16490,10767,18204,11444,0.0124706,-0.00181068,-0.0154493
12980,2.898,16495,10772,18210,11449,0.017805,0.00629308,-0.0142317
13000,2.835,16499,10777,18215,11453,0.0179371,0.00979536,-0.0134126
13020,2.773,16502,10781,18220,11457,0.0186731,0.0134523,-0.00587672
13040,2.737,16504,10784,18224,11461,0.0183422,0.0137912,0.00268506
13060,2.735,16506,10786,18228,11463,0.0191001,0.0123616,0.00662451
13080,2.713,16507,10787,18231,11466,0.0136027,0.0124545,0.00833017
13100,2.737,16507,10787,18233,11467,0.0025555,0.0113418,0.00792495
13120,2.677,16506,10787,18234,11469,-0.00244274,0.0114033,0.00568718
13140,2.678,16505,10786,18235,11470,-0.0113538,0.0106213,0.00222923
13160,2.689,16504,10785,18236,11470,-0.0183202,0.00998984,-0.00256983
13180,2.707,16503,10784,18236,11471,-0.0244315,0.0101176,-0.00647802
13200,2.723,16502,10782,18236,11471,-0.0251742,0.00709264,-0.00655008
13220,2.759,16501,10781,18236,11471,-0.0183289,0.00337034,-0.00705611
13240,2.758,16500,10780,18236,11471,-0.0104783,0.00190473,-0.00248821
13260,2.742,16499,10779,18236,11470,-0.0042062,0.00052919,-0.00309437
13280,2.916,16499,10778,18235,11469,0.00168639,0.000620673,-0.0076826
13300,3.284,16499,10777,18235,11469,0.0128977,-0.000113688,-0.0109107
13320,3.764,16499,10777,18234,11467,0.018032,0.00103898,-0.0209279
13340,3.992,16499,10776,18233,11466,0.0195316,0.00307469,-0.0219043
13360,3.992,16499,10775,18231,11465,0.0196609,0.000276159,-0.0166426
13380,3.967,16499,10775,18229,11464,0.0211638,-0.00404424,-0.00723236
13400,3.777,16498,10774,18227,11462,0.0201491,-0.00603894,0.00622861
13420,3.491,16497,10773,18225,11461,0.0139315,-0.00926621,0.0170698
13440,3.242,16496,10772,18223,11461,0.00795834,-0.00750977,0.0339644
13460,3.068,16495,10771,18221,11460,-0.00149489,-0.0120092,0.0467892
13480,2.964,16494,10770,18219,11459,-0.0113252,-0.0117962,0.0461333
13500,2.941,16493,10770,18218,11459,-0.0167914,-0.00906601,0.0650226
13520,2.866,16492,10769,18216,11459,-0.029104,-0.00439654,0.0852905
13540,2.805,16492,10769,18215,11459,-0.0548669,0.000613913,-0.0372973
13560,2.796,16492,10769,18214,11459,-0.0527701,0.00161939,-0.132274
13580,2.819,16493,10770,18214,11459,-0.0308338,0.00049052,-0.0846627
13600,2.875,16493,10771,18213,11458,0.00148442,-0.00989458,-0.00507192
13620,2.959,16494,10772,18213,11458,0.00781635,-0.0159702,-0.0278082
13640,3.008,16495,10773,18213,11456,0.0152122,-0.00845039,-0.12122
13660,3.036,16496,10773,18212,11454,0.0426766,0.00284183,-0.123717
13680,2.91,16496,10774,18210,11452,0.0503663,0.00489641,-0.0186412
13700,2.86,16495,10773,18208,11448,0.0396179,0.00827031,-0.0406697
13720,2.797,16494,10772,18206,11443,0.0584749,0.00959421,0.0773677
13740,2.755,16492,10770,18202,11438,0.0298796,0.0163588,0.0794079
13760,2.728,16489,10768,18198,11432,0.0180212,0.0158136,0.043703
13780,2.674,16486,10764,18194,11425,0.00354391,0.0178257,0.106105
13800,2.682,16482,10760,18189,11419,-0.00778458,0.0156604,0.0576969
13820,2.682,16479,10756,18185,11413,-0.0354594,0.0132182,0.0823656
13840,2.696,16475,10752,18180,11407,-0.0430524,0.00809547,0.0928127
13860,2.723,16472,10749,18177,11403,-0.0453625,-0.00110544,0.0227053
13880,2.685,16470,10746,18174,11399,-0.0506092,-0.00650648,0.0013989
13900,2.763,16468,10744,18173,11396,-0.0474381,-0.0102286,-0.0504468
13920,2.775,16468,10743,18172,11395,-0.0346391,-0.00811329,-0.048306
13940,2.797,16469,10743,18173,11395,-0.0187014,-0.00548577,0.0109492
13960,2.784,16471,10744,18174,11396,-0.023346,-0.010221,-0.00301971
13980,2.752,16473,10746,18176,11397,-0.0251221,-0.0132512,-0.106299
14000,2.714,16476,10748,18177,11398,0.0024442,-0.0260596,-0.112283
14020,2.832,16479,10750,18178,11399,0.0334114,-0.0318009,-0.0391144
14040,3.239,16481,10751,18179,11400,0.0397821,-0.0261093,0.0399219
14060,3.641,16483,10752,18179,11400,0.0266785,-0.0164798,0.0138591
14080,3.936,16484,10753,18178,11400,0.0395723,-0.0117957,0.0400312
14100,3.972,16484,10752,18176,11398,0.0334366,-0.0127262,0.0649573
14120,3.827,16483,10751,18173,11396,0.0328919,-0.0137109,0.0620585
14140,3.555,16481,10749,18169,11394,0.0113609,-0.0096902,0.0550044
14160,3.274,16479,10746,18165,11392,-0.0142421,-0.00184042,0.0475418
14180,3.073,16476,10743,18161,11389,-0.0325019,0.00252114,0.052179
14200,2.945,16473,10740,18157,11388,-0.0419599,-0.00220423,0.0106863
14220,2.888,16471,10738,18154,11386,-0.0168419,-0.0118792,0.0737973
14240,2.826,16469,10737,18152,11386,-0.0449819,-0.0126503,0.00952981
14260,2.735,16468,10736,18150,11386,-0.0360022,-0.0126173,-0.015333
14280,2.705,16468,10736,18150,11387,-0.0357143,-0.0084333,0.0068747
14300,2.706,16469,10738,18150,11388,-0.0278037,-0.00782975,-0.010977
14320,2.765,16471,10740,18150,11390,-0.0223317,-0.0090376,-0.0598954
14340,2.828,16473,10743,18151,11391,-0.0188819,-0.00580813,-0.103156
14360,2.878,16475,10746,18152,11392,-0.00260391,-0.00183797,-0.149494
14380,2.908,16477,10749,18153,11393,0.017747,-0.00283669,-0.137669
14400,2.926,16479,10751,18153,11392,0.044553,-0.00918415,-0.119797
14420,2.908,16479,10753,18152,11390,0.0329439,-0.0162454,-0.113791
14440,2.853,16479,10753,18150,11387,0.050987,-0.0148799,-0.103281
14460,2.808,16477,10752,18146,11383,0.0658475,-0.00907731,-0.0595365
14480,2.751,16473,10750,18142,11378,0.0449287,0.00103793,-0.0752026
14500,2.716,16468,10747,18136,11372,0.0660007,0.00809065,-0.0518684
14520,2.692,16462,10743,18129,11365,0.0670432,0.0148866,0.0883168
14540,2.66,16455,10738,18122,11357,0.0484718,0.0188306,0.139577
14560,2.642,16448,10732,18114,11349,0.0176673,0.0265474,0.131851
14580,2.64,16440,10727,18106,11340,-0.0253028,0.0287696,0.162309
14600,2.598,16433,10721,18098,11332,-0.0466024,0.0323829,0.132673
14620,2.64,16427,10717,18091,11325,-0.0609961,0.0314036,0.116068
14640,2.653,16422,10714,18086,11318,-0.0718941,0.0211408,0.150369
14660,2.668,16419,10712,18082,11313,-0.0770907,0.00965712,0.105656
14680,2.699,16419,10711,18080,11309,-0.0962905,0.00176213,0.0695083
14700,2.712,16420,10712,18079,11307,-0.0991873,-0.000499534,0.0225802
14720,2.713,16424,10714,18081,11307,-0.07074,-0.00230844,0.0597787
14740,2.693,16429,10718,18085,11309,-0.0783879,0.00702122,0.0022723
14760,2.714,16436,10723,18090,11312,-0.050406,0.00904948,-0.0248094
14780,2.93,16445,10729,18097,11318,-0.032427,0.00658708,0.0195971
14800,3.313,16454,10735,18105,11325,-0.036401,0.00194354,-0.125175
14820,3.772,16464,10741,18113,11334,0.0136154,-0.00307019,-0.14561
14840,3.991,16473,10746,18121,11343,0.0371298,-0.00283592,-0.113003
14860,3.96,16481,10750,18129,11353,0.041726,-0.00708302,-0.131096
14880,3.756,16487,10753,18136,11364,0.0598371,-0.00775376,-0.0810523
14900,3.491,16491,10754,18142,11374,0.0549998,-0.006682,-0.0928452
14920,3.27,16493,10753,18147,11383,0.0681335,0.000236727,-0.103331
14940,3.098,16492,10751,18149,11391,0.0701031,0.00499644,-0.0987117
14960,2.933,16489,10746,18151,11397,0.0853177,0.0129049,-0.00725292
14980,2.85,16485,10740,18150,11402,0.084388,0.0201167,0.0562562
15000,2.779,16478,10733,18148,11405,0.0565151,0.0288474,0.0182399
15020,2.758,16470,10725,18146,11406,0.031366,0.0328983,0.0284501
15040,2.734,16462,10717,18142,11405,0.00487263,0.0248683,0.088613
15060,2.754,16454,10709,18138,11402,-0.0473273,0.0214566,-0.0537925
15080,2.79,16446,10702,18133,11398,-0.025114,0.0114822,0.0465265
15100,2.866,16439,10696,18128,11393,-0.0278875,0.00472787,0.163393
15120,2.962,16433,10691,18124,11387,-0.0614743,-0.00402758,0.0757428
15140,2.964,16430,10689,18120,11380,-0.0642953,-0.00462154,0.0201071
15160,2.968,16428,10688,18117,11374,-0.0803153,-0.00178098,-0.0245161
15180,2.905,16428,10689,18115,11368,-0.0278071,-0.00355993,0.140934
15200,2.8,16430,10692,18115,11364,-0.0424198,-0.0103922,0.123509
15220,2.776,16434,10697,18116,11360,-0.0466863,-0.0180212,0.109265
15240,2.689,16440,10703,18118,11359,-0.0673326,-0.0199263,0.0216693
15260,2.649,16447,10710,18122,11360,-0.0729176,-0.0243612,-0.0958104
15280,2.622,16454,10718,18128,11363,-0.0169616,-0.0312325,-0.0901995
15300,2.611,16463,10725,18134,11367,-0.00881615,-0.0363429,-0.110886
15320,2.608,16471,10733,18141,11374,0.0182768,-0.0319809,-0.172699
15340,2.622,16478,10740,18149,11381,0.0497059,-0.0307693,-0.161485
15360,2.656,16484,10745,18156,11389,0.039094,-0.0266942,-0.170695
15380,2.688,16489,10749,18163,11396,0.0546434,-0.0176285,-0.244263
15400,2.682,16491,10751,18168,11403,0.0749408,-0.00853229,-0.203323
15420,2.705,16491,10752,18171,11408,0.0948017,0.0058427,-0.134911
15440,2.73,16489,10750,18172,11410,0.09596,0.0080788,-0.113315
15460,2.733,16484,10747,18170,11409,0.0722883,0.00754844,-0.0935397
15480,2.754,16476,10742,18164,11405,0.0448817,0.00650355,-0.0954573
15500,2.761,16465,10736,18156,11398,0.062423,0.00795445,0.00234506
15520,2.761,16453,10729,18145,11387,0.0934808,0.0140406,0.164971
15540,2.835,16440,10721,18131,11373,0.0749062,0.0186697,0.305584
15560,3.089,16427,10714,18116,11358,-0.0239426,0.0334288,0.23591
15580,3.512,16414,10708,18100,11341,-0.0331216,0.0379402,0.232942
15600,3.877,16402,10703,18084,11325,-0.0382188,0.0329049,0.252446
15620,4.003,16392,10699,18069,11309,-0.0937289,0.0272041,0.141097
15640,3.97,16385,10698,18056,11296,-0.0761842,0.0164565,0.156081
15660,3.763,16382,10699,18047,11285,-0.126155,0.00365876,0.128815
15680,3.541,16382,10702,18041,11278,-0.132547,-0.013315,0.100916
15700,3.291,16386,10707,18040,11276,-0.138253,-0.0302561,0.0613444
15720,3.085,16394,10714,18042,11278,-0.161253,-0.0349804,-0.128214
15740,2.951,16405,10722,18049,11284,-0.0835804,-0.0312417,-0.0180261
15760,2.874,16418,10732,18060,11295,-0.0733791,-0.0287644,0.0328296
15780,2.798,16434,10742,18074,11309,-0.0498379,-0.0163215,-0.0717257
15800,2.696,16450,10752,18090,11326,-0.0420494,-0.00653181,-0.119031
15820,2.709,16466,10761,18108,11344,0.0112812,0.00128289,-0.129854
15840,2.657,16481,10769,18125,11364,0.0331323,0.00701069,-0.101345
15860,2.703,16493,10775,18143,11383,0.0522946,0.00780818,-0.0926765
15880,2.779,16504,10779,18158,11401,0.0953402,0.00852819,-0.0193192
15900,2.84,16511,10780,18172,11417,0.0928122,0.00707662,0.021506
15920,2.871,16515,10780,18184,11431,0.105656,0.00355106,0.0225366
15940,2.854,16516,10778,18193,11443,0.10652,0.000550838,0.143178
15960,2.818,16514,10774,18199,11452,0.0936389,0.00759116,0.124354
15980,2.775,16511,10770,18204,11458,0.108637,0.0130146,0.133865
16000,2.716,16506,10765,18207,11463,0.0411299,0.016944,0.123373
16020,2.66,16501,10760,18209,11465,-0.0195661,0.00178316,0.0667049
16040,2.667,16497,10756,18210,11466,-0.0639249,-0.0163269,-0.0553715
16060,2.656,16493,10753,18211,11465,-0.0606008,-0.0364008,-0.0899824
16080,2.671,16490,10751,18211,11463,-0.0672156,-0.0524886,-0.0882748
16100,2.654,16488,10751,18211,11460,-0.0520878,-0.0591213,-0.0628898
16120,2.646,16488,10751,18210,11457,-0.0633167,-0.0570527,-0.0929972
16140,2.604,16489,10753,18210,11453,-0.069778,-0.0506552,-0.183565
16160,2.59,16491,10755,18209,11448,-0.0439066,-0.0361051,-0.19686
16180,2.614,16492,10757,18207,11443,-0.0075136,-0.0207653,-0.178815
16200,2.635,16494,10759,18205,11437,0.0271894,-0.00575901,-0.184556
16220,2.64,16495,10759,18201,11431,0.0375564,-0.00260559,-0.0951275
16240,2.643,16494,10759,18197,11425,0.0599412,0.000367013,0.0196266
16260,2.635,16492,10756,18191,11418,0.0461119,0.000120337,-0.0918154
16280,2.631,16488,10752,18185,11411,0.0659849,0.00700003,-0.0281076
16300,2.719,16483,10746,18178,11404,0.0782105,0.0108436,0.0426803
16320,3.001,16476,10739,18170,11397,0.0903589,0.0088114,0.0622941
16340,3.397,16469,10731,18163,11391,0.0941197,0.0158102,0.170374
16360,3.796,16461,10723,18156,11386,0.0547561,0.0162824,0.134305
16380,3.94,16453,10715,18150,11381,0.0205349,0.0183909,0.137349
16400,3.851,16445,10707,18144,11378,-0.0117643,0.0262895,0.153618
16420,3.632,16439,10702,18140,11375,-0.0175695,0.0232857,0.129604
16440,3.367,16435,10698,18137,11373,-0.0494712,0.0175983,0.113396
16460,3.145,16433,10697,18135,11372,-0.0634896,0.00365698,0.0777534
16480,2.954,16433,10699,18135,11371,-0.0781235,-0.0175163,0.0776634
16500,2.843,16436,10702,18136,11372,-0.132043,-0.0234777,-0.0662248
16520,2.784,16441,10708,18138,11373,-0.107219,-0.0250118,-0.12483
16540,2.705,16447,10716,18140,11375,-0.0986496,-0.0257697,-0.0729482
16560,2.643,16454,10724,18144,11377,-0.0633989,-0.0238153,-0.0783717
16580,2.624,16462,10733,18147,11380,-0.0221479,-0.0267838,-0.0762034
16600,2.659,16470,10741,18151,11382,-0.0252803,-0.02684,-0.136438
16620,2.71,16477,10748,18155,11386,0.0448352,-0.0272545,-0.0551232
16640,2.744,16483,10754,18159,11390,0.0361418,-0.0201417,-0.0192106
16660,2.875,16487,10757,18163,11394,0.0423507,-0.0106807,-0.0871654
16680,2.88,16489,10759,18166,11398,0.0857755,-0.00321781,-0.012016
16700,2.815,16489,10758,18169,11403,0.063612,-0.00282461,-0.0239054
16720,2.786,16487,10755,18171,11407,0.0720136,-0.0119493,-0.106167
16740,2.737,16483,10751,18173,11411,0.0779608,-0.0252361,0.00996586
16760,2.712,16477,10744,18174,11415,0.0572059,-0.0223682,0.013085
16780,2.681,16470,10737,18174,11418,0.063745,-0.016096,-0.0567953
16800,2.659,16463,10729,18173,11419,0.0614733,-0.00581581,-0.0261266
16820,2.678,16454,10720,18172,11419,0.0620843,-0.00357536,0.0593979
16840,2.654,16446,10712,18169,11417,0.0199155,-0.00730636,0.104048
16860,2.661,16438,10706,18166,11413,-0.0111917,-0.00559594,0.0861506
16880,2.671,16431,10700,18161,11408,-0.048998,-0.00364212,0.0803764
16900,2.661,16425,10695,18156,11400,-0.0942791,-0.00198019,-0.0323536
16920,2.656,16420,10692,18150,11392,-0.0626846,-0.00718198,-0.0193567
16940,2.636,16417,10691,18143,11382,-0.0822099,-0.0200192,0.041684
16960,2.679,16414,10691,18137,11372,-0.0793714,-0.0346128,-0.0400966
16980,2.659,16413,10692,18131,11361,-0.0610222,-0.0398654,0.0780034
17000,2.659,16413,10694,18125,11352,-0.0650862,-0.031545,0.105305
17020,2.586,16415,10696,18121,11344,-0.0145486,-0.0145424,0.0484989
17040,2.636,16417,10700,18118,11337,0.0133198,0.00508924,0.129724
17060,2.797,16419,10703,18116,11333,0.0073021,0.0201658,0.117524
17080,3.224,16423,10707,18117,11332,-0.0133606,0.0296582,0.0837028
17100,3.652,16426,10710,18119,11334,0.00368094,0.0268675,0.122445
17120,3.887,16430,10713,18123,11339,-0.00139159,0.019746,0.0307574
17140,3.897,16435,10716,18129,11347,-0.00749181,0.00913478,0.00559817
17160,3.709,16440,10719,18136,11357,-0.0146853,0.00212757,-0.00462856
17180,3.46,16444,10722,18145,11369,-0.00722872,-0.00725531,0.00487299
17200,3.232,16449,10725,18154,11382,0.00552428,-0.00442747,-0.0401395
17220,3.032,16453,10727,18164,11397,0.0310839,-0.00351617,-0.0123434
17240,2.908,16458,10729,18173,11411,0.0219458,0.00246133,0.00826449
17260,2.832,16462,10731,18182,11424,0.00661805,0.0119518,-0.133591
17280,2.754,16465,10732,18189,11437,0.00711585,0.0259945,-0.120472
17300,2.675,16468,10733,18196,11447,0.00716076,0.0304481,-0.133853
17320,2.626,16469,10734,18200,11455,0.00828048,0.0128353,-0.0543533
17340,2.652,16470,10733,18202,11460,0.000610606,-0.00003979,-0.0448621
17360,2.734,16470,10732,18203,11463,-0.00154885,-0.0107191,-0.123962
17380,2.8,16469,10730,18201,11463,0.0161868,-0.0102341,-0.0630807
17400,2.81,16466,10727,18198,11460,0.0149518,-0.00347468,-0.0531825
17420,2.849,16463,10724,18194,11456,0.0244778,0.0067524,-0.0306986
17440,2.847,16459,10719,18188,11450,0.0318601,0.0117055,0.0949036
17460,2.843,16455,10715,18182,11444,0.0208609,0.0146317,0.0685781
17480,2.766,16450,10710,18176,11436,0.00255048,0.0208228,0.0253184
17500,2.723,16445,10705,18170,11429,-0.00832475,0.0254062,0.0459824
17520,2.672,16441,10701,18165,11423,-0.00809924,0.0271543,0.0564149
17540,2.663,16438,10698,18160,11417,-0.0213654,0.0231385,0.113582
17560,2.636,16436,10695,18157,11413,-0.0334862,0.0135423,0.139779
17580,2.66,16435,10694,18156,11410,-0.0472525,0.00308689,0.12285
17600,2.622,16435,10695,18156,11409,-0.0352783,0.003022,0.0457004
17620,2.622,16437,10696,18158,11410,-0.0244388,0.00735367,0.052581
17640,2.598,16441,10700,18161,11411,-0.042136,0.0114324,0.0163509
17660,2.615,16446,10704,18166,11415,-0.0276969,0.00983769,0.0541791
17680,2.629,16452,10710,18171,11419,-0.031425,0.00742995,0.0345102
17700,2.653,16459,10717,18178,11424,-0.0180773,-0.00344471,-0.0349204
17720,2.622,16467,10724,18185,11430,0.00364872,-0.0123645,-0.0291093
17740,2.663,16475,10731,18192,11437,0.022317,-0.020146,0.0181318
17760,2.626,16483,10737,18199,11444,0.00985007,-0.0197699,-0.0311073
17780,2.684,16491,10744,18206,11451,0.0237518,-0.0172789,-0.0638797
17800,2.867,16498,10749,18213,11459,0.0727966,-0.0214888,0.119435
17820,3.259,16504,10753,18219,11466,0.0659927,-0.0228616,0.120869
17840,3.711,16509,10756,18225,11474,0.040914,-0.0112943,0.024947
17860,3.977,16513,10758,18230,11482,0.0261727,0.00262,0.0202201
17880,3.97,16516,10760,18235,11490,0.0138133,0.0132657,0.00175351
17900,3.83,16518,10760,18239,11497,0.0294444,0.00746411,0.122581
17920,3.578,16519,10760,18242,11504,-0.0352184,-0.00111746,-0.124047
17940,3.333,16519,10760,18244,11510,-0.0550055,-0.0187226,-0.32101
17960,3.091,16518,10759,18245,11515,-0.0328823,-0.0307397,-0.393883
17980,2.94,16517,10758,18245,11518,0.0523193,-0.0418802,-0.320192
18000,2.881,16514,10756,18242,11519,0.0438513,-0.0441647,-0.230595
18020,2.853,16510,10755,18237,11516,0.0170471,-0.0334279,-0.33401
18040,2.815,16504,10752,18230,11511,0.0531573,-0.0253677,-0.398218
18060,2.79,16496,10749,18219,11501,0.059313,-0.0189321,-0.292611
18080,2.762,16486,10745,18205,11488,0.106995,-0.00631432,-0.162973
18100,2.859,16474,10740,18187,11470,0.081062,0.00185016,-0.221285
18120,2.945,16458,10733,18166,11449,0.0416798,0.0113496,-0.188476
18140,3.024,16440,10725,18142,11424,0.0994759,0.0174709,-0.0281066
18160,3.049,16420,10716,18115,11396,0.0861829,0.00963449,0.104521
18180,3.046,16399,10706,18087,11367,0.077714,0.0130189,0.143339
18200,2.985,16377,10695,18059,11336,0.117099,0.00870411,0.176058
18220,2.92,16354,10684,18032,11306,0.0800003,0.0156341,0.261376
18240,2.853,16334,10673,18006,11278,0.034703,0.0215106,0.442243
18260,2.784,16316,10665,17985,11254,-0.00212499,0.0242206,0.490903
18280,2.728,16301,10658,17969,11234,-0.0306667,0.0333992,0.423332
18300,2.679,16292,10654,17959,11219,-0.0974501,0.0408737,0.283359
18320,2.653,16288,10654,17957,11211,-0.118084,0.032306,0.312429
18340,2.636,16290,10657,17962,11210,-0.147079,0.0250126,0.338186
18360,2.631,16298,10665,17974,11215,-0.155925,0.011272,0.23805
18380,2.656,16312,10676,17994,11228,-0.156817,-0.00929776,0.107857
18400,2.659,16332,10691,18021,11246,-0.170362,-0.0324248,0.0656779
18420,2.621,16356,10709,18054,11270,-0.178714,-0.0439944,0.0127476
18440,2.649,16384,10730,18090,11299,-0.200605,-0.0329885,-0.304519
18460,2.679,16414,10751,18129,11330,-0.141779,-0.031239,-0.194033
18480,2.663,16443,10773,18169,11362,-0.116178,-0.0256878,-0.143904
18500,2.71,16472,10794,18208,11395,-0.0781916,-0.0259656,-0.215399
18520,2.898,16498,10813,18244,11427,-0.0394758,-0.021716,-0.183762
18540,3.22,16520,10829,18276,11456,-0.00690094,-0.00504885,-0.177118
18560,3.653,16537,10842,18303,11482,0.0609377,0.0150029,-0.0498179
18580,3.964,16549,10851,18325,11504,0.110512,0.0288712,0.113595
18600,3.971,16556,10856,18341,11522,0.117671,0.0351617,0.142336
18620,3.845,16558,10857,18351,11535,0.126748,0.0252243,0.139305
18640,3.607,16555,10854,18356,11545,0.0952633,0.0106678,0.187236
18660,3.334,16548,10849,18357,11551,0.076548,0.00444697,0.162666
18680,3.14,16539,10842,18354,11554,0.100561,-0.00382969,0.357727
18700,2.992,16529,10835,18350,11556,0.039953,-0.00565861,0.363303
18720,2.903,16520,10828,18346,11557,0.0206805,-0.0156769,0.215897
18740,2.822,16512,10822,18342,11557,-0.00599288,-0.0256317,0.195659
18760,2.728,16507,10819,18341,11559,-0.0568076,-0.0344168,0.0998703
18780,2.693,16505,10818,18342,11561,-0.0512641,-0.0358263,0.0594511
18800,2.716,16507,10821,18347,11566,-0.104145,-0.0280672,-0.0561306
18820,2.751,16512,10826,18354,11572,-0.0812859,-0.0247938,-0.192119
18840,2.803,16520,10833,18364,11579,-0.0460246,-0.0316658,-0.231928
18860,2.854,16530,10841,18375,11588,-0.106876,-0.0453991,-0.347014
18880,2.947,16542,10850,18387,11597,-0.094258,-0.0377057,-0.610487
18900,2.919,16553,10858,18398,11606,0.041283,-0.0372816,-0.348064
18920,2.919,16561,10863,18407,11613,-0.0160703,-0.0264556,-0.359042
18940,2.885,16567,10866,18414,11619,0.04739,-0.012651,-0.325969
18960,2.798,16569,10865,18416,11623,0.0869395,0.000822453,-0.252515
18980,2.734,16566,10859,18415,11624,0.102957,0.0140189,-0.266297
19000,2.7,16559,10849,18409,11621,0.172272,0.0359608,-0.196043
19020,2.699,16546,10836,18398,11615,0.139273,0.0400038,-0.102416
19040,2.688,16529,10818,18384,11605,0.132223,0.0431725,0.014413
19060,2.661,16508,10798,18366,11592,0.102104,0.0358365,-0.0489129
19080,2.657,16485,10776,18345,11576,0.132687,0.0203522,0.0303746
19100,2.716,16460,10754,18323,11556,0.147115,0.0196938,0.166566
19120,2.712,16436,10733,18300,11535,0.127462,0.0206072,0.130439
19140,2.721,16412,10714,18277,11513,0.0918674,0.0203352,0.0813501
19160,2.758,16392,10698,18255,11490,0.0749903,0.0201532,0.116544
19180,2.751,16375,10685,18235,11466,0.0477317,0.00923183,0.164989
19200,2.756,16362,10677,18217,11443,-0.0119512,-0.0029898,0.108546
19220,2.724,16353,10672,18202,11422,-0.0347392,-0.00953,0.073587
19240,2.724,16350,10673,18190,11402,-0.0358908,-0.0143668,0.127162
19260,2.899,16350,10677,18180,11384,-0.0792908,-0.0103254,0.0438223
19280,3.262,16354,10684,18173,11369,-0.0844934,-0.0150429,0.00555212
19300,3.642,16362,10694,18169,11358,-0.0957434,-0.0164942,0.0750539
19320,3.936,16372,10706,18168,11350,-0.0962957,-0.0161833,0.0177597
19340,3.95,16384,10718,18169,11346,-0.0796758,-0.0105976,-0.00155974
19360,3.803,16396,10732,18172,11346,-0.101707,-0.000747298,-0.0303765
19380,3.567,16409,10744,18177,11350,-0.0730125,0.00863278,0.00794945
19400,3.308,16421,10756,18185,11357,-0.0475902,0.021806,0.0131391
19420,3.115,16432,10767,18193,11368,-0.00237901,0.0260929,0.0534059
19440,2.979,16442,10777,18204,11382,0.0230128,0.0290036,0.117247
19460,2.902,16451,10785,18215,11398,0.0102271,0.0276412,0.0571067
19480,2.852,16458,10792,18228,11415,0.0422212,0.0255165,0.0122389
19500,2.796,16464,10797,18240,11433,0.0453268,0.0249356,0.0412618
19520,2.752,16468,10802,18253,11452,0.0212434,0.0185373,-0.0515591
19540,2.727,16472,10806,18265,11469,0.0543837,0.0132968,0.0246128
19560,2.779,16475,10809,18277,11484,0.0465191,0.0131526,0.105175
19580,2.902,16477,10812,18287,11497,0.0496108,0.00820768,0.0742929
19600,2.958,16479,10814,18296,11508,0.0288118,0.0162435,0.108713
19620,2.948,16481,10816,18303,11516,0.00172282,0.0262859,0.0263605
19640,2.919,16483,10818,18308,11521,-0.00351565,0.0359074,0.0377278
19660,2.912,16485,10820,18312,11524,-0.0456069,0.0373164,0.051054
19680,2.859,16487,10821,18314,11525,-0.019065,0.0293729,0.0870199
19700,2.784,16489,10823,18315,11524,-0.0770796,0.01903,0.00105264
19720,2.699,16492,10825,18316,11522,-0.0926906,0.0096,-0.166206
19740,2.633,16494,10826,18316,11519,-0.0582575,-0.00436253,-0.104226
19760,2.582,16497,10827,18316,11517,-0.0589456,-0.00954306,-0.0460735
19780,2.569,16499,10828,18316,11515,-0.0132821,-0.0103916,-0.151924
19800,2.61,16500,10828,18316,11514,-0.0194667,-0.00893534,-0.192565
19820,2.57,16500,10826,18316,11514,0.0141461,-0.00737156,-0.151454
19840,2.591,16500,10824,18317,11515,0.0370828,-0.00738772,-0.0760386
19860,2.583,16498,10821,18317,11517,0.0269949,-0.000514998,-0.122618
19880,2.603,16495,10817,18318,11519,0.0924612,0.0119542,0.00208064
19900,2.626,16491,10811,18318,11521,0.0787552,0.0216885,0.0697134
19920,2.639,16485,10805,18317,11522,0.0921033,0.019576,0.0937206
19940,2.629,16479,10798,18316,11523,0.0752667,0.0123503,0.160909
19960,2.638,16472,10790,18313,11524,0.029869,0.00302253,0.101613
19980,2.769,16464,10783,18310,11523,0.0293883,-0.00289907,0.125433
20000,3.117,16458,10776,18307,11521,-0.00514642,-0.00828665,0.183668
20020,3.487,16452,10770,18303,11519,-0.0229688,-0.0139231,0.114751
20040,3.798,16447,10765,18300,11516,-0.0272089,-0.0253203,0.14683
20060,3.894,16444,10763,18297,11513,-0.0830878,-0.0285888,-1.38E-05
20080,3.756,16443,10762,18294,11510,-0.0802547,-0.0309906,-0.105734
20100,3.49,16444,10763,18291,11508,-0.0877393,-0.0287604,-0.0910682
20120,3.234,16446,10766,18290,11506,-0.0671886,-0.0339384,-0.111396
20140,3.025,16450,10771,18288,11504,-0.0322001,-0.0334514,-0.143547
20160,2.924,16456,10776,18287,11503,-0.0212528,-0.0285902,-0.134451
20180,2.832,16461,10782,18287,11502,0.0146594,-0.0174349,-0.0597967
20200,2.742,16467,10787,18286,11502,0.0141436,-0.00332125,-0.144582
20220,2.705,16471,10792,18285,11501,0.0322705,0.0157032,-0.16538
20240,2.649,16475,10794,18283,11501,0.084165,0.0254283,-0.0369652
20260,2.646,16476,10795,18280,11500,0.0876032,0.0240455,0.0906072
20280,2.66,16475,10793,18276,11498,0.0609288,0.0311277,-0.0396688
20300,2.744,16472,10789,18272,11497,0.0975339,0.0350082,0.083416
20320,2.766,16468,10784,18268,11495,0.062013,0.0457459,0.170284
20340,2.825,16462,10777,18263,11492,0.0586276,0.0472272,0.0671606
20360,2.852,16455,10769,18259,11490,0.0536877,0.0463802,0.145939
20380,2.815,16449,10762,18255,11489,0.0131694,0.0375438,0.183948
20400,2.814,16443,10756,18252,11487,-0.0355097,0.0296995,0.124347
20420,2.783,16439,10751,18251,11486,-0.0405381,0.0283509,0.0768992
20440,2.713,16436,10749,18251,11486,-0.0408523,0.0247493,0.0920216
20460,2.713,16436,10748,18252,11486,-0.067619,0.0180131,0.0571548
20480,2.688,16438,10750,18255,11487,-0.0466909,0.0167879,0.0623412
20500,2.636,16442,10754,18259,11489,-0.056314,0.015219,0.098248
20520,2.638,16448,10761,18264,11491,-0.0727094,0.0104408,0.0159714
20540,2.625,16456,10768,18269,11493,-0.0671006,0.00175843,-0.0500021
20560,2.572,16465,10777,18275,11497,-0.0709642,-0.000995925,-0.00776275
20580,2.575,16475,10786,18282,11500,-0.0654446,-0.00576367,-0.135417
20600,2.582,16484,10794,18288,11504,-0.0311415,-0.00918931,-0.157074
20620,2.617,16492,10802,18294,11509,0.0179705,-0.00495888,-0.140314
20640,2.59,16499,10807,18299,11513,0.0540115,-0.00620646,-0.150683
20660,2.58,16505,10811,18303,11517,0.055107,-0.00419045,-0.165136
20680,2.586,16507,10812,18306,11521,0.0879132,-0.00133544,-0.160218
20700,2.695,16507,10811,18307,11524,0.0924429,0.00689839,-0.139115
20720,3.004,16505,10807,18307,11525,0.102154,0.0196642,-0.152166
20740,3.427,16500,10801,18304,11525,0.136145,0.0191529,-0.0544801
20760,3.791,16492,10792,18299,11524,0.121372,0.0166804,0.0299838
20780,3.915,16482,10782,18292,11520,0.111087,0.0125401,0.0118439
20800,3.838,16470,10770,18283,11514,0.10183,0.0149455,0.0450687
20820,3.592,16457,10757,18272,11505,0.0683786,0.0189175,0.114961
20840,3.351,16443,10744,18259,11494,0.0336498,0.0240163,0.0884998
20860,3.164,16430,10731,18245,11481,-0.0334708,0.0251446,0.106152
20880,2.98,16417,10719,18231,11467,-0.0409416,0.018452,0.078386
20900,2.923,16406,10709,18216,11452,-0.0651829,0.0116198,-0.0148216
20920,2.853,16396,10701,18201,11436,-0.090811,-0.00173179,-0.00909895
20940,2.805,16389,10695,18187,11420,-0.0739533,-0.0113617,0.0450864
20960,2.756,16384,10691,18175,11405,-0.093831,-0.0183472,0.0267236
20980,2.71,16381,10690,18164,11392,-0.0824013,-0.0136985,0.0360015
21000,2.71,16380,10690,18155,11380,-0.0945996,-0.00893438,-0.0504809
21020,2.712,16381,10691,18149,11370,-0.0764212,-0.00289322,-0.0232603
21040,2.789,16383,10694,18145,11363,-0.0354028,0.00288111,-0.0155947
21060,2.81,16387,10698,18142,11358,-0.0262802,0.00360254,-0.0583483
21080,2.842,16391,10701,18142,11356,-0.00913738,0.00682284,-0.10536
21100,2.824,16394,10704,18143,11356,0.022233,0.00450225,-0.0330544
21120,2.755,16398,10706,18145,11357,0.025656,0.00286394,-0.0417079
21140,2.688,16400,10708,18148,11361,0.0926037,-0.00484024,0.105377
21160,2.636,16402,10708,18152,11365,0.0630246,0.00537817,0.115505
21180,2.629,16402,10707,18156,11370,0.0803232,0.0118922,0.110417
21200,2.625,16401,10705,18160,11376,0.0621987,0.0231355,0.174079
21220,2.594,16400,10703,18164,11382,0.0221793,0.0249888,0.134488
21240,2.551,16398,10700,18168,11388,0.0321404,0.019351,0.179025
21260,2.54,16396,10698,18172,11394,-0.0176952,0.01444,0.144618
21280,2.551,16395,10696,18176,11399,-0.0179394,0.00871983,0.163799
21300,2.603,16394,10695,18181,11405,-0.0587088,0.000356805,0.0877639
21320,2.619,16395,10696,18186,11410,-0.0704801,-0.0140236,0.0967151
21340,2.608,16397,10698,18191,11416,-0.0863529,-0.0184449,0.0154078
21360,2.638,16400,10701,18197,11421,-0.108263,-0.020698,-0.0946655
21380,2.621,16405,10705,18203,11427,-0.0716821,-0.0181228,-0.03561
21400,2.626,16410,10711,18209,11433,-0.0956997,-0.0163863,-0.116558
21420,2.646,16417,10716,18214,11439,-0.065149,-0.0129478,-0.127039
21440,2.679,16423,10722,18220,11445,-0.0381711,-0.00788195,-0.0399052
21460,2.882,16429,10728,18225,11452,-0.0274632,0.00106342,-0.159366
21480,3.284,16435,10732,18229,11459,0.0365571,0.00963236,-0.176442
21500,3.709,16439,10735,18232,11465,0.0281372,0.0153375,-0.183483
21520,3.961,16441,10736,18235,11471,0.0988418,0.00596353,0.00533631
21540,3.946,16441,10735,18236,11477,0.0914229,0.00874172,0.0878229
21560,3.751,16439,10731,18236,11482,0.0735778,0.0144243,0.0118366
21580,3.526,16436,10726,18235,11486,0.0867036,0.0308959,-0.0132102
21600,3.294,16430,10719,18233,11490,0.0506783,0.032433,-0.121936
21620,3.089,16423,10712,18231,11492,0.131959,0.0220428,0.0693231
21640,2.952,16416,10703,18227,11494,0.0913659,0.00681539,0.12318
21660,2.929,16408,10695,18224,11494,0.047988,-0.00842198,0.198482
21680,2.856,16400,10687,18220,11493,-0.0275522,-0.00373593,0.112858
21700,2.824,16394,10680,18217,11491,-0.0612087,-0.00590111,-0.1226
21720,2.782,16388,10675,18213,11488,-0.0431008,-0.00465447,-0.160577
21740,2.8,16384,10671,18210,11483,-0.0571319,-0.0142548,-0.0643886
21760,2.847,16382,10669,18206,11478,-0.0316089,-0.0226063,-0.057889
21780,2.902,16381,10669,18203,11471,-0.0871705,-0.0294362,-0.109544
21800,2.93,16381,10670,18199,11463,-0.0856371,-0.0229186,-0.205756
21820,2.957,16382,10672,18195,11455,-0.0170945,-0.0110177,-0.221508
21840,2.943,16383,10673,18190,11446,0.0497729,0.00270662,-0.0541272
21860,2.902,16384,10675,18185,11437,0.061626,0.0187471,0.111695
21880,2.866,16385,10676,18181,11428,0.0233723,0.0264479,0.0951256
21900,2.794,16385,10677,18176,11420,0.0449713,0.030482,0.110702
21920,2.727,16385,10677,18172,11413,0.0060841,0.0226059,0.0511565
21940,2.693,16384,10676,18168,11408,0.0489378,0.0108754,0.120693
21960,2.652,16382,10675,18166,11405,0.040912,0.0109285,0.199399
21980,2.631,16380,10673,18165,11405,0.0110107,0.0108496,0.214936
22000,2.621,16379,10672,18167,11406,-0.0530214,0.00795946,0.182635
22020,2.629,16378,10672,18170,11410,-0.0695554,-0.0088908,-0.0626004
22040,2.638,16378,10672,18175,11416,-0.0181783,-0.02325,-0.0414417
22060,2.632,16380,10674,18182,11424,-0.0552364,-0.0240821,-0.0463194
22080,2.703,16382,10677,18190,11432,-0.0386199,-0.0173541,-0.122092
22100,2.72,16385,10681,18198,11440,-0.0567012,-0.011803,-0.117295
22120,2.734,16390,10685,18207,11448,-0.0428878,-0.0119584,-0.167053
22140,2.741,16394,10690,18215,11455,0.00768741,-0.0167893,-0.208671
22160,2.663,16399,10695,18221,11460,0.0585516,-0.0194376,-0.043929
22180,2.593,16403,10698,18226,11463,0.0390556,-0.0134317,0.111043
22200,2.668,16406,10701,18228,11464,0.0136463,0.00200687,0.0120343
22220,2.933,16407,10702,18228,11463,0.0108802,0.0175416,-0.0147575
22240,3.295,16407,10701,18226,11461,0.00314051,0.0195933,-0.0176258
22260,3.749,16405,10698,18223,11457,0.0298022,0.0090103,0.00640738
22280,3.97,16401,10694,18218,11453,0.030576,0.00341141,0.15183
22300,3.977,16397,10689,18213,11449,0.0012148,0.00182769,0.216628
22320,3.837,16391,10684,18208,11446,-0.0350202,0.00952249,0.186827
22340,3.624,16386,10678,18204,11445,-0.0298297,0.0094266,0.129196
22360,3.306,16382,10674,18202,11445,-0.0281694,0.00611657,0.0997625
22380,3.127,16379,10670,18201,11447,-0.0325494,0.00338212,0.086422
22400,2.971,16378,10669,18202,11452,-0.0429947,-0.0026507,0.107532
22420,2.913,16379,10670,18206,11458,-0.101688,-0.00638812,-0.0651255
22440,2.885,16381,10673,18212,11466,-0.0768683,-0.0161988,-0.0761795
22460,2.857,16386,10679,18218,11474,-0.0571057,-0.0224321,-0.108381
22480,2.797,16392,10686,18226,11483,-0.0466642,-0.0283443,-0.148683
22500,2.773,16399,10693,18234,11491,-0.017469,-0.02434,-0.142681
22520,2.824,16407,10701,18241,11498,0.0111047,-0.0174156,-0.111893
22540,2.856,16414,10709,18247,11504,0.00796574,-0.00871453,-0.173972
22560,2.884,16420,10716,18251,11508,0.029077,-0.00821542,-0.188072
22580,2.913,16424,10720,18254,11510,0.0463376,-0.000726842,-0.121826
22600,2.91,16426,10723,18255,11511,0.0661287,0.00946236,-0.0432949
22620,2.875,16426,10723,18254,11509,0.0937019,0.025968,0.0310823
22640,2.864,16424,10720,18252,11507,0.087261,0.0345995,0.136229
22660,2.784,16420,10716,18248,11504,0.0625725,0.0420522,0.116877
22680,2.738,16415,10710,18244,11500,0.032931,0.0331608,0.0764726
22700,2.643,16408,10703,18240,11496,0.0171204,0.026991,0.136714
22720,2.657,16401,10696,18236,11492,-0.0241106,0.0183931,0.058024
22740,2.649,16395,10689,18232,11488,-0.0333211,0.00256698,0.121222
22760,2.659,16389,10683,18230,11485,-0.0380005,-0.00715138,0.12396
22780,2.693,16385,10680,18228,11483,-0.0601324,-0.0242119,0.0461146
22800,2.714,16383,10678,18228,11481,-0.0692393,-0.030619,0.069017
22820,2.703,16383,10678,18229,11480,-0.0798684,-0.028974,0.0683303
22840,2.684,16385,10681,18231,11479,-0.0765959,-0.0249058,0.028939
22860,2.663,16389,10685,18234,11478,-0.0787714,-0.0200984,-0.0486755
22880,2.689,16394,10691,18238,11479,-0.0604398,-0.0276629,0.0108777
22900,2.672,16401,10698,18242,11479,-0.0851216,-0.0371998,-0.113973
22920,2.672,16408,10706,18246,11480,-0.0591741,-0.0430748,-0.141444
22940,2.652,16415,10713,18250,11481,-0.00955928,-0.0377195,-0.101787
22960,2.652,16421,10719,18254,11482,0.0296596,-0.0344778,-0.124089
22980,2.654,16427,10724,18257,11484,0.0368847,-0.0306547,-0.113397
23000,2.601,16430,10726,18260,11485,0.0543009,-0.0284753,-0.0894815
23020,2.657,16432,10727,18261,11487,0.0618721,-0.0195088,-0.12202
23040,2.944,16431,10726,18261,11489,0.0829291,-0.00532042,-0.0482979
23060,3.397,16429,10722,18260,11490,0.0954733,0.0139116,-0.000411848
23080,3.856,16424,10716,18258,11491,0.0880824,0.0208697,-0.01558
23100,3.998,16418,10709,18255,11491,0.0906856,0.0238499,0.0836877
23120,3.989,16410,10701,18251,11490,0.0581958,0.012393,0.0401089
23140,3.841,16402,10693,18245,11487,0.0352026,0.00534829,0.0750047
23160,3.665,16393,10684,18239,11484,0.00852232,0.00567763,0.108927
23180,3.385,16385,10676,18232,11479,-0.0262418,0.00561844,0.166321
23200,3.164,16377,10670,18225,11474,-0.0525227,0.00980543,0.162209
23220,3.021,16371,10665,18217,11467,-0.0631843,0.00959195,0.122844
23240,2.954,16367,10662,18211,11461,-0.0859086,0.00790524,0.10755
23260,2.903,16365,10661,18205,11455,-0.0888743,0.00998601,0.07865
23280,2.824,16366,10663,18201,11449,-0.0868891,0.00736918,0.0982709
23300,2.766,16369,10667,18198,11445,-0.0938405,0.0030505,0.115941
23320,2.762,16374,10674,18198,11443,-0.108669,0.00185604,0.0487106
23340,2.77,16381,10682,18201,11443,-0.103161,0.000777839,0.0198451
23360,2.826,16390,10692,18206,11445,-0.0876507,-0.00329745,-0.0057444
23380,2.826,16401,10702,18213,11451,-0.0724307,-0.00670638,-0.099055
23400,2.817,16411,10713,18223,11459,-0.0297048,-0.0123167,-0.0428468
23420,2.811,16422,10724,18235,11470,-0.0121458,-0.0102852,-0.087058
23440,2.756,16433,10733,18248,11482,0.0314314,-0.0140077,-0.129255
23460,2.773,16442,10742,18262,11496,0.0503455,-0.00707387,-0.152921
23480,2.73,16450,10749,18276,11511,0.0892672,-0.00388826,-0.0831441
23500,2.696,16456,10753,18289,11525,0.104491,0.00446454,-0.0423175
23520,2.666,16460,10756,18302,11539,0.0867261,0.0152472,-0.117897
23540,2.621,16461,10756,18312,11551,0.102042,0.019064,-0.110017
23560,2.587,16461,10754,18320,11561,0.0710434,0.0113677,-0.125608
23580,2.563,16458,10751,18326,11568,0.0771768,-0.000452345,-0.114593
23600,2.57,16454,10745,18328,11572,0.0790733,-0.00970225,-0.0963802
23620,2.569,16448,10738,18327,11573,0.0562541,-0.0151721,-0.127393
23640,2.626,16441,10730,18323,11570,0.0471893,-0.0177689,-0.0896405
23660,2.614,16433,10721,18316,11564,0.0214489,-0.015668,-0.0547638
23680,2.692,16424,10712,18307,11555,0.0211782,-0.0158296,-0.0134766
23700,2.678,16415,10703,18295,11542,-0.00930376,-0.0136051,-0.0122793
23720,2.679,16407,10694,18281,11528,-0.0190201,-0.00700454,0.036908
23740,2.657,16400,10687,18266,11512,-0.0353438,0.00274888,0.0828457
23760,2.652,16394,10680,18251,11496,-0.0458194,0.00403164,0.0765404
23780,2.628,16389,10676,18237,11480,-0.035967,0.00356333,0.10599
23800,2.646,16386,10673,18223,11465,-0.0427555,-0.00570736,0.136253
23820,2.882,16385,10672,18211,11452,-0.0380798,-0.0113683,0.140362
23840,3.224,16386,10672,18202,11442,-0.0618862,-0.0129909,0.0723299
23860,3.667,16389,10675,18195,11435,-0.0688431,-0.0185784,-0.031791
23880,3.905,16394,10679,18191,11432,-0.0534651,-0.0290093,-0.0394451
23900,3.904,16400,10685,18190,11432,-0.0448634,-0.0420506,-0.0913843
23920,3.681,16408,10691,18191,11435,0.00463579,-0.0539028,-0.0851436
23940,3.444,16417,10699,18194,11441,0.027205,-0.0530317,-0.0427028
23960,3.193,16427,10706,18199,11450,0.0323886,-0.043521,-0.0879733
23980,3.01,16436,10713,18204,11460,0.00996346,-0.0300239,-0.187719
24000,2.885,16445,10720,18210,11471,0.0543611,-0.0233765,-0.110066
24020,2.857,16453,10725,18216,11481,0.0611556,-0.0124151,-0.0313449
24040,2.796,16459,10730,18220,11491,0.074357,-0.00315886,0.0574088
24060,2.735,16464,10732,18223,11499,0.105453,0.00637912,0.23775
24080,2.716,16468,10734,18225,11506,0.05099,0.0148669,0.183979
24100,2.679,16470,10734,18225,11510,0.0177021,0.026302,0.223462
24120,2.72,16472,10734,18224,11513,-0.0148114,0.0391105,0.18798
24140,2.755,16473,10734,18223,11514,-0.00336539,0.0377231,0.229057
24160,2.867,16475,10734,18223,11515,0.00600636,0.0375857,0.416282
24180,2.867,16479,10735,18224,11516,-0.0332353,0.0265874,0.410692
24200,2.863,16484,10738,18227,11518,-0.0856159,0.012514,0.261072
24220,2.835,16492,10744,18233,11522,-0.112102,0.00432345,0.120286
24240,2.744,16503,10751,18242,11528,-0.109845,-0.00150968,-0.0806929
24260,2.672,16516,10762,18255,11537,-0.0870093,-0.013394,-0.198364
24280,2.612,16532,10774,18270,11549,-0.0948033,-0.0360996,-0.130384
24300,2.614,16550,10788,18288,11563,-0.122425,-0.047308,-0.355272
24320,2.617,16569,10802,18307,11578,-0.113096,-0.0618476,-0.624116
24340,2.561,16587,10816,18325,11594,-0.0179878,-0.0531097,-0.38795
24360,2.537,16604,10829,18342,11610,-0.0270095,-0.0184884,-0.455194
24380,2.566,16618,10838,18356,11624,0.0631339,-0.00141316,-0.297761
24400,2.593,16628,10844,18366,11635,0.102704,0.028838,-0.204548
24420,2.568,16633,10846,18370,11643,0.102691,0.027377,-0.27059
24440,2.612,16632,10842,18368,11646,0.133645,0.0289309,-0.20131
24460,2.622,16626,10834,18359,11644,0.107721,0.0274815,-0.079138
24480,2.642,16614,10822,18345,11636,0.108869,0.0340811,-0.00106902
24500,2.649,16598,10805,18325,11625,0.156414,0.0416598,0.118735
24520,2.652,16578,10786,18300,11609,0.143533,0.0416668,0.248669
24540,2.661,16556,10766,18273,11590,0.096554,0.0304432,0.218163
24560,2.894,16533,10746,18244,11569,0.105934,0.0153713,0.246432
24580,3.242,16512,10727,18216,11548,0.0773017,0.0131587,0.275083
24600,3.621,16493,10711,18190,11527,0.0282098,0.0180025,0.263114
24620,3.826,16479,10699,18168,11509,-0.0106412,0.0182624,0.269109
24640,3.803,16469,10692,18150,11493,-0.0231228,0.0154526,0.250836
24660,3.617,16465,10690,18138,11481,-0.0670958,0.00539222,0.195531
24680,3.364,16468,10693,18132,11474,-0.0928648,-0.00602256,0.119901
24700,3.141,16477,10702,18132,11472,-0.12468,-0.0117861,0.0649825
24720,2.93,16491,10715,18137,11474,-0.152446,-0.0148173,-0.0405027
24740,2.786,16509,10731,18148,11481,-0.12209,-0.0143479,-0.0762379
24760,2.705,16531,10750,18163,11493,-0.131366,-0.0204279,-0.139871
24780,2.633,16554,10769,18180,11507,-0.143013,-0.028623,-0.19114
24800,2.608,16577,10788,18199,11523,-0.13285,-0.0168367,-0.178471
24820,2.583,16600,10806,18218,11541,-0.0857544,-0.00164249,-0.219894
24840,2.626,16619,10821,18236,11560,-0.0068582,0.00490343,-0.204721
24860,2.684,16635,10833,18252,11577,-0.0107775,0.00760413,-0.196227
24880,2.752,16646,10841,18265,11592,0.0254547,-0.00535342,-0.137032
24900,2.812,16652,10844,18274,11605,0.0592969,-0.00956792,-0.137087
24920,2.857,16653,10844,18280,11615,0.0784915,-0.00465172,-0.0884687
24940,2.867,16650,10840,18281,11621,0.138349,0.0041754,0.0161639
24960,2.85,16642,10833,18278,11624,0.136141,0.0101821,0.0462006
24980,2.794,16631,10823,18272,11623,0.149874,0.0134824,0.148262
25000,2.758,16617,10811,18263,11619,0.130398,0.0158772,0.195846
25020,2.709,16602,10799,18251,11611,0.11593,0.0214458,0.178035
25040,2.693,16587,10787,18238,11601,0.0925154,0.0156884,0.161323
25060,2.672,16571,10775,18225,11590,0.0367153,0.00521864,0.235104
25080,2.663,16558,10766,18212,11577,-0.00578617,-0.000883989,0.195372
25100,2.638,16547,10758,18201,11564,-0.0392024,-0.017347,0.165197
25120,2.635,16538,10753,18191,11551,-0.0972202,-0.0297561,0.0222538
25140,2.605,16533,10751,18184,11540,-0.0792863,-0.0493177,0.071186
25160,2.626,16531,10752,18180,11531,-0.123556,-0.0495343,-0.00465764
25180,2.605,16532,10755,18179,11524,-0.105108,-0.0604973,0.00375245
25200,2.631,16535,10760,18181,11519,-0.126606,-0.0458974,-0.0588359
25220,2.596,16539,10766,18186,11518,-0.140937,-0.0340807,-0.19386
25240,2.633,16545,10773,18193,11519,-0.0950787,-0.0103693,-0.135665
25260,2.892,16550,10779,18202,11522,-0.0612404,-0.00232484,-0.122963
25280,3.227,16555,10785,18211,11527,0.00721613,-0.0068644,-0.0999441
25300,3.555,16558,10789,18222,11534,0.0206454,0.00299449,-0.0912229
25320,3.705,16559,10790,18231,11542,0.0347198,0.00464339,-0.0951683
25340,3.673,16557,10789,18241,11551,0.0697838,0.0161265,-0.0533099
25360,3.526,16553,10786,18248,11559,0.0855489,0.0267464,-0.00167576
25380,3.266,16546,10780,18255,11567,0.128301,0.027225,0.0813345
25400,3.043,16537,10773,18259,11574,0.137107,0.0271256,0.144076
25420,2.905,16526,10763,18263,11580,0.122386,0.0265351,0.202061
25440,2.805,16515,10754,18265,11584,0.0959971,0.0261187,0.107165
25460,2.755,16503,10744,18265,11587,0.0558846,0.0136931,0.034493
25480,2.689,16491,10734,18265,11588,0.048203,0.00672032,0.0622844
25500,2.654,16480,10726,18264,11588,0.0180938,-0.0069212,0.117453
25520,2.668,16471,10720,18263,11586,-0.00132178,-0.016599,0.136837
25540,2.716,16464,10716,18262,11584,-0.0261514,-0.0247395,0.0514619
25560,2.79,16459,10714,18261,11580,-0.0791391,-0.0282648,-0.0741083
25580,2.873,16456,10714,18261,11575,-0.0955823,-0.0249792,-0.123978
25600,2.896,16455,10716,18260,11570,-0.109249,-0.0194136,-0.196741
25620,2.891,16455,10719,18260,11565,-0.0863511,-0.0115856,-0.205448
25640,2.864,16456,10722,18259,11560,-0.0266383,-0.00224654,-0.0918249
25660,2.838,16457,10725,18258,11555,-0.0500066,0.00672741,-0.161848
25680,2.741,16457,10727,18257,11550,-0.0287419,0.017304,-0.308036
25700,2.667,16456,10728,18255,11545,-0.00509572,0.0252795,-0.373782
25720,2.611,16453,10726,18253,11540,0.019833,0.0272928,-0.284037
25740,2.605,16448,10722,18249,11536,0.102484,0.0256593,-0.106336
25760,2.596,16440,10715,18244,11531,0.117091,0.0236636,0.010747
25780,2.614,16429,10705,18237,11525,0.0869657,0.0191222,-0.120235
25800,2.628,16416,10693,18229,11518,0.0536752,0.024593,-0.227636
25820,2.612,16400,10679,18219,11511,0.0384871,0.0325918,-0.154422
25840,2.657,16383,10663,18208,11502,0.120991,0.0393454,0.0412232
25860,2.721,16365,10647,18195,11491,0.148537,0.0414387,0.230559
25880,2.787,16346,10631,18182,11479,0.119531,0.0353796,0.324238
25900,2.779,16328,10617,18168,11465,0.0854097,0.0300473,0.300535
25920,2.723,16311,10604,18155,11451,-0.00398654,0.0274695,0.259237
25940,2.716,16297,10594,18142,11436,0.005796,0.0335637,0.297853
25960,2.787,16286,10587,18131,11422,-0.0137739,0.0475319,0.359412
25980,3.102,16280,10584,18122,11409,-0.0096763,0.0500753,0.566678
26000,3.452,16278,10585,18117,11398,-0.0344611,0.0348394,0.62908
26020,3.698,16281,10591,18115,11391,-0.168611,0.0140639,0.315696
26040,3.749,16289,10601,18119,11388,-0.138761,0.0103572,0.252109
26060,3.635,16302,10615,18127,11390,-0.158359,0.0185389,0.122992
26080,3.406,16321,10632,18140,11398,-0.108999,0.00940849,0.174175
26100,3.169,16343,10652,18158,11411,-0.0867189,0.0173288,0.152145
26120,3.018,16369,10675,18181,11430,-0.174743,-0.0073458,-0.163453
26140,2.901,16397,10698,18207,11454,-0.128482,-0.0408371,-0.11904
26160,2.807,16425,10720,18236,11482,-0.198585,-0.0425004,-0.52671
26180,2.78,16452,10741,18265,11513,-0.161095,-0.0387736,-0.796802
26200,2.775,16477,10759,18293,11545,-0.0339675,-0.0244315,-0.32229
26220,2.745,16497,10773,18318,11574,-0.0517441,-0.000805945,-0.328653
26240,2.752,16512,10782,18339,11601,0.0113162,0.00118339,-0.276481
26260,2.779,16520,10785,18353,11623,0.00165255,0.017931,-0.366274
26280,2.807,16521,10782,18360,11639,0.0465366,0.030317,-0.382615
26300,2.852,16515,10773,18360,11648,0.154469,0.052275,-0.138371
26320,2.909,16501,10758,18352,11649,0.171115,0.0605963,0.0348148
26340,2.948,16481,10739,18337,11643,0.19631,0.058646,0.098141
26360,2.94,16457,10716,18316,11631,0.138934,0.0401641,0.115364
26380,2.867,16429,10691,18291,11614,0.0575064,0.0129953,0.0790733
26400,2.821,16399,10665,18265,11593,0.132093,-0.00849531,0.156985
26420,2.755,16370,10640,18238,11570,0.130956,-0.017922,0.22358
26440,2.689,16343,10618,18212,11547,0.118334,-0.0230169,0.224363
26460,2.716,16320,10598,18190,11525,0.104003,-0.0224032,0.191727
26480,2.705,16301,10583,18172,11506,0.0021167,-0.0424486,0.136699
26500,2.684,16288,10572,18159,11490,-0.00980446,-0.0488627,0.0938561
26520,2.661,16281,10567,18151,11479,0.0214632,-0.0388707,0.106724
26540,2.639,16279,10566,18149,11472,-0.022725,-0.0162661,0.127238
26560,2.681,16284,10569,18152,11469,-0.0389052,-0.00738889,0.0720339
26580,2.667,16293,10575,18159,11470,-0.0872168,-0.0204531,0.0317913
26600,2.638,16305,10584,18169,11475,-0.152888,-0.0307738,-0.135764
26620,2.619,16319,10595,18181,11482,-0.120473,-0.0415961,-0.202729
26640,2.692,16335,10606,18193,11491,-0.129071,-0.0345639,-0.207528
26660,2.966,16349,10616,18205,11501,-0.0800689,-0.0190635,-0.231693
26680,3.301,16363,10625,18216,11511,-0.0223239,-0.00440469,-0.197638
26700,3.569,16373,10632,18225,11521,-0.0409614,0.00468653,-0.185524
26720,3.66,16381,10636,18232,11530,0.0246669,0.0127479,-0.145804
26740,3.567,16384,10638,18235,11537,0.0698409,0.0263087,-0.0168617
26760,3.354,16385,10637,18236,11542,0.0848914,0.0421887,0.0413441
26780,3.169,16381,10633,18233,11545,0.150676,0.0571046,0.0947418
26800,3.018,16375,10627,18229,11546,0.117468,0.0561921,0.129366
26820,2.959,16366,10620,18222,11545,0.104544,0.0376712,0.145181
26840,2.929,16356,10612,18214,11541,0.108388,0.022084,0.189189
26860,2.91,16345,10605,18205,11537,0.0759713,0.0102841,0.19955
26880,2.877,16335,10597,18195,11531,0.057714,-0.000700112,0.220211
26900,2.829,16326,10591,18186,11524,-0.0155812,-0.00772378,0.143298
26920,2.812,16319,10587,18178,11516,-0.0404439,-0.0181143,0.0962854
26940,2.804,16315,10586,18172,11509,-0.0480976,-0.021116,0.0891877
26960,2.818,16314,10586,18167,11501,-0.0881279,-0.0203167,0.0297678
26980,2.853,16315,10589,18163,11494,-0.0941255,-0.0209588,-0.0481703
27000,2.88,16320,10594,18161,11488,-0.130899,-0.0215533,-0.128595
27020,2.891,16326,10600,18161,11482,-0.142553,-0.0275422,-0.243723
27040,2.889,16333,10607,18161,11477,-0.143069,-0.0395232,-0.312526
27060,2.866,16341,10614,18162,11473,-0.0880493,-0.0369399,-0.308594
27080,2.818,16348,10620,18162,11469,-0.0272814,-0.0306386,-0.272329
27100,2.791,16353,10625,18162,11466,-0.0462236,-0.0181604,-0.23623
27120,2.758,16356,10627,18160,11463,0.0262891,-0.00122841,-0.157261
27140,2.735,16356,10626,18157,11459,0.0471854,0.010033,-0.138545
27160,2.765,16352,10623,18153,11455,0.0896707,0.0307575,-0.00163873
27180,2.731,16345,10617,18146,11452,0.126932,0.0497994,0.129036
27200,2.731,16334,10608,18139,11448,0.086733,0.0625617,0.315085
27220,2.749,16322,10598,18131,11444,0.112358,0.0764648,0.41918
27240,2.779,16308,10587,18123,11440,0.0897706,0.0682515,0.3441
27260,2.723,16295,10577,18116,11437,0.00959739,0.0609115,0.201694
27280,2.713,16282,10567,18111,11434,0.0454361,0.0327026,0.305565
27300,2.846,16272,10560,18107,11433,0.000715366,0.0145662,0.340198
27320,3.143,16266,10557,18107,11434,0.00913108,-0.00312009,0.402975
27340,3.478,16265,10557,18110,11436,-0.00497892,-0.0176103,0.474651
27360,3.679,16268,10561,18116,11441,-0.0990809,-0.0254476,0.315966
27380,3.737,16277,10570,18127,11449,-0.123587,-0.0195979,0.110059
27400,3.649,16291,10583,18141,11459,-0.117721,-0.0118571,0.0999259
27420,3.467,16311,10601,18159,11472,-0.0141787,0.000430608,0.326729
27440,3.28,16334,10621,18180,11488,-0.0139504,-0.00244647,0.260756
27460,3.089,16361,10644,18203,11507,-0.121389,-0.0154031,0.0287608
27480,2.931,16389,10667,18229,11529,-0.135324,-0.0177348,-0.350162
27500,2.861,16417,10691,18256,11553,-0.109298,-0.0314231,-0.477949
27520,2.832,16444,10713,18282,11578,-0.186254,-0.0424141,-0.791878
27540,2.819,16469,10732,18307,11603,-0.058556,-0.0509775,-0.690864
27560,2.808,16488,10747,18329,11627,0.0213807,-0.0532017,-0.254277
27580,2.828,16502,10758,18347,11649,-0.080078,-0.0391649,-0.582829
27600,2.852,16510,10763,18360,11668,0.0543396,-0.00552143,-0.466897
27620,2.881,16510,10761,18367,11682,0.0270579,0.0396277,-0.502594
27640,2.912,16502,10754,18367,11690,0.0972492,0.0696473,-0.5404
27660,2.924,16486,10741,18359,11691,0.155945,0.079654,-0.49183
27680,3.003,16462,10721,18341,11683,0.0848375,0.0414596,-0.410577
27700,3.056,16430,10697,18315,11667,0.0777028,0.0243448,-0.342033
27720,3.045,16393,10669,18281,11642,0.0795439,-0.00508983,-0.197344
27740,3.01,16352,10640,18241,11609,0.0944471,-0.025545,0.0748265
27760,2.975,16309,10609,18196,11570,0.151346,0.00406436,0.253303
27780,2.908,16265,10580,18147,11526,0.164964,0.0392089,0.310533
27800,2.887,16223,10552,18097,11478,0.161315,0.0467328,0.449488
27820,2.873,16185,10528,18049,11429,0.227398,0.0520902,0.56659
27840,2.857,16154,10510,18005,11383,0.206434,0.0365394,0.38651
27860,2.838,16130,10497,17967,11340,0.192351,0.0178676,0.528356
27880,2.811,16115,10490,17937,11304,0.111204,0.0121262,0.682808
27900,2.803,16109,10490,17917,11276,0.0499984,-0.000680802,0.564175
27920,2.791,16113,10496,17907,11257,0.0330865,-0.00627669,0.553747
27940,2.933,16128,10509,17908,11248,-0.0868219,-0.0205181,0.385292
27960,3.182,16151,10527,17920,11250,-0.106512,-0.0491553,0.384205
27980,3.463,16183,10549,17943,11263,-0.176226,-0.0462288,0.396268
28000,3.688,16222,10576,17975,11287,-0.157956,-0.0232974,0.476771
28020,3.73,16267,10606,18015,11320,-0.139566,0.00404222,0.295707
28040,3.572,16315,10638,18061,11361,-0.229738,0.00339872,0.0205646
28060,3.322,16366,10670,18111,11408,-0.26184,0.0411101,-0.439277
28080,3.148,16416,10701,18163,11458,-0.204621,0.020543,-0.346738
28100,3.039,16465,10731,18214,11510,-0.237082,-0.0283794,-0.42289
28120,3.01,16509,10757,18262,11560,-0.226928,-0.054954,-0.701902
28140,2.993,16548,10779,18304,11607,-0.155012,-0.0715891,-0.296996
28160,2.976,16581,10797,18340,11648,-0.222527,-0.0634962,-0.526814
28180,2.965,16605,10809,18366,11682,-0.0997019,-0.0197404,-0.459272
28200,2.913,16620,10816,18383,11707,-0.0343308,0.0246354,-0.405995
28220,2.919,16627,10816,18389,11722,-0.0187804,0.0317858,-0.378663
28240,2.954,16624,10811,18385,11726,0.0520216,0.0420956,-0.178922
28260,3.013,16613,10801,18371,11720,0.0859506,0.022539,-0.0063615
28280,3.067,16595,10786,18348,11705,0.0989114,0.0241569,-0.10006
28300,3.082,16572,10769,18318,11681,0.1291,0.0263103,-0.108015
28320,3.087,16544,10749,18282,11652,0.170252,0.0174529,0.24549
28340,3.029,16515,10728,18244,11618,0.116749,0.00109676,0.295447
28360,2.965,16485,10708,18205,11581,0.141045,-0.0309481,0.341373
28380,2.917,16457,10690,18168,11546,0.129673,-0.0530175,0.344378
28400,2.856,16433,10675,18135,11512,0.102178,-0.0565291,0.41302
28420,2.818,16414,10664,18108,11484,0.0929699,-0.0445883,0.362368
28440,2.758,16402,10657,18088,11461,0.0668155,-0.0259896,0.362731
28460,2.726,16396,10655,18076,11446,0.0426716,0.00126702,0.307535
28480,2.723,16399,10658,18073,11439,0.00847621,-0.00520284,0.256786
28500,2.717,16408,10665,18079,11440,-0.0558893,-0.0228901,0.132562
28520,2.696,16424,10676,18093,11449,-0.0993433,-0.0362115,-0.025066
28540,2.74,16445,10691,18113,11465,-0.148481,-0.0461924,-0.213535
28560,2.909,16469,10707,18137,11487,-0.232205,-0.0465442,-0.773832
28580,3.263,16496,10724,18164,11512,-0.0903452,-0.0452591,-0.395294
28600,3.544,16522,10740,18191,11538,-0.0767209,-0.0254314,-0.274633
28620,3.709,16546,10755,18215,11565,-0.0812503,-0.0153114,-0.35479
28640,3.659,16567,10767,18236,11588,-0.0327408,0.0206343,-0.276486
28660,3.501,16582,10776,18251,11608,-0.0306373,0.0333343,-0.323605
28680,3.299,16592,10781,18260,11622,0.0544884,0.0557222,-0.177829
28700,3.12,16595,10782,18260,11630,0.086383,0.068997,-0.0982914
28720,2.985,16592,10779,18254,11630,0.114335,0.0706135,-0.0679144
28740,2.934,16583,10772,18240,11624,0.0652525,0.0595507,-0.125651
28760,2.901,16568,10763,18220,11611,0.0483829,0.0388038,0.0401401
28780,2.853,16551,10753,18195,11593,0.116277,0.0117172,0.305832
28800,2.812,16531,10741,18167,11571,0.100752,0.00621174,0.320197
28820,2.861,16510,10730,18138,11545,0.138676,0.0209894,0.361395
28840,2.85,16492,10720,18109,11519,0.0896449,0.0345107,0.296229
28860,2.931,16476,10713,18084,11493,0.0414039,0.0296599,0.246156
28880,2.986,16464,10709,18062,11470,0.0569927,0.0185246,0.402134
28900,2.992,16457,10708,18045,11449,-0.0267884,0.00832369,0.256847
28920,2.987,16457,10710,18035,11434,-0.0279022,-0.00234024,0.216565
28940,2.944,16462,10717,18032,11424,-0.0849762,-0.00293513,0.1965
28960,2.88,16473,10726,18035,11419,-0.154375,-0.0293232,0.00777517
28980,2.852,16489,10738,18044,11421,-0.1258,-0.0502198,0.0135225
29000,2.803,16509,10751,18059,11429,-0.149205,-0.0620505,0.0064682
29020,2.775,16532,10766,18078,11441,-0.121894,-0.0581424,-0.0909117
29040,2.791,16555,10780,18100,11458,-0.132955,-0.0337503,-0.190808
29060,2.779,16579,10793,18124,11479,-0.148545,-0.0136214,-0.201646
29080,2.754,16602,10804,18149,11501,-0.113118,0.0153001,-0.289967
29100,2.724,16621,10812,18173,11525,-0.0293683,0.0307372,-0.283526
29120,2.748,16636,10817,18194,11549,0.00912364,0.0387812,-0.175194
29140,2.784,16647,10818,18212,11571,-0.00216422,0.0327782,-0.1554
29160,2.937,16651,10815,18225,11591,0.0519805,0.0176887,-0.103269
29180,3.21,16650,10808,18234,11607,0.0601836,0.0130209,-0.0731993
29200,3.546,16644,10798,18238,11619,0.094017,0.00895441,-0.00125248
29220,3.777,16633,10785,18237,11627,0.116274,0.0123458,0.0443372
29240,3.777,16618,10770,18230,11629,0.108498,0.0191898,0.0495055
29260,3.658,16600,10754,18220,11627,0.115407,0.0192975,0.0853305
29280,3.46,16579,10738,18205,11620,0.0686093,0.010213,0.0485293
29300,3.234,16558,10722,18188,11608,0.0928272,-0.00458961,0.0828029
29320,3.103,16537,10707,18169,11594,0.0777063,-0.0092627,0.133795
29340,3.049,16518,10694,18150,11577,0.0322396,-0.010333,0.0988654
29360,2.968,16501,10684,18130,11558,-0.0249432,-0.0152114,0.0529784
29380,2.906,16486,10676,18112,11539,-0.0558996,-0.0289864,-0.0221595
29400,2.867,16475,10671,18096,11520,-0.0415746,-0.0373782,0.0594157
29420,2.849,16466,10667,18081,11502,-0.0846781,-0.0468013,0.0319229
29440,2.867,16460,10666,18070,11486,-0.0891297,-0.0462079,-0.0663795
29460,2.924,16457,10666,18062,11473,-0.108956,-0.0304011,-0.0653784
29480,2.962,16456,10666,18056,11463,-0.123054,-0.0186057,-0.143017
29500,2.971,16456,10667,18054,11456,-0.0899492,-0.0152703,-0.0969231
29520,2.958,16457,10667,18054,11452,-0.0859374,-0.0092901,-0.103364
29540,2.929,16457,10666,18057,11452,-0.0241132,-0.00598158,-0.12073
29560,2.947,16458,10665,18061,11454,0.00362668,0.00212005,-0.147545
29580,2.892,16456,10662,18067,11459,0.0294422,-0.000488439,-0.15432
29600,2.829,16454,10657,18075,11466,0.0752118,0.00119985,-0.0423333
29620,2.789,16450,10651,18082,11473,0.0884022,0.0111521,-0.00597912
29640,2.812,16444,10644,18090,11482,0.109751,0.012923,0.00814662
29660,2.853,16436,10637,18097,11490,0.0953885,0.0185491,0.00767735
29680,2.856,16428,10628,18104,11497,0.0913543,0.0099595,0.0190717
29700,2.832,16419,10620,18109,11503,0.0913227,0.00624146,0.0929063
29720,2.878,16409,10612,18114,11507,0.0807286,0.00549335,0.0888391
29740,2.867,16399,10605,18116,11509,0.0721873,0.000461251,0.129654
29760,2.864,16390,10599,18118,11508,0.0138907,-0.00368022,0.13081
29780,2.993,16382,10594,18117,11505,-0.0237468,-0.0115329,0.116799
29800,3.26,16376,10591,18116,11500,-0.0327526,-0.0202301,0.0992318
29820,3.621,16371,10590,18114,11493,-0.0535687,-0.0263185,0.0560315
29840,3.883,16368,10590,18112,11485,-0.062226,-0.0276803,0.0048354
29860,3.937,16367,10592,18109,11477,-0.0740865,-0.0309367,-0.00387018
29880,3.786,16367,10595,18107,11470,-0.105545,-0.0324282,-0.0887351
29900,3.578,16369,10600,18105,11463,-0.0783196,-0.0396177,-0.0763984
29920,3.388,16371,10604,18104,11457,-0.0892307,-0.0390002,-0.0700488
29940,3.192,16375,10609,18103,11454,-0.0620649,-0.0390185,-0.093465
29960,3.092,16378,10614,18104,11453,-0.021154,-0.0342796,-0.0424177
29980,3.02,16381,10617,18106,11454,0.00248249,-0.0289169,-0.0551467
30000,2.964,16383,10620,18109,11457,0.0381138,-0.0219864,-0.0462193
30020,2.898,16385,10621,18113,11462,0.0261529,-0.0127101,-0.0521604
30040,2.873,16385,10621,18117,11469,0.0619239,-0.00713778,-0.0482447
30060,2.822,16383,10619,18122,11476,0.075049,0.00394418,0.000419415
30080,2.875,16381,10615,18126,11484,0.0702552,0.00840989,0.0149831
30100,2.909,16377,10611,18131,11492,0.095308,0.00780911,0.0449196
30120,2.95,16372,10606,18135,11498,0.0681096,0.00844638,0.0915342
30140,3.055,16367,10600,18138,11504,0.0683814,0.00906403,0.104937
30160,3.091,16361,10595,18141,11507,0.0443227,0.0132134,0.0859246
30180,3.063,16356,10589,18143,11509,0.0181886,0.0140402,0.0671129
30200,3.063,16351,10585,18144,11509,-0.0312269,0.010612,0.0728149
30220,3.015,16347,10581,18144,11506,-0.0582874,0.00173611,0.0715968
30240,2.964,16345,10579,18144,11502,-0.0494765,-0.00424178,0.060099
30260,2.931,16344,10579,18143,11497,-0.075898,-0.0107672,0.0627442
30280,2.913,16344,10579,18142,11491,-0.0736247,-0.0114368,0.0222741
30300,2.852,16346,10581,18141,11485,-0.0751387,-0.014615,0.0278817
30320,2.856,16349,10584,18141,11479,-0.0836741,-0.00638769,0.0238755
30340,2.843,16354,10588,18141,11473,-0.0743382,0.00103421,-0.0772761
30360,2.835,16358,10593,18143,11470,-0.0680738,0.00141379,-0.024721
30380,2.776,16364,10597,18145,11467,-0.0571619,0.0017353,-0.0933345
30400,2.745,16369,10601,18147,11467,-0.0193817,-0.00364961,-0.11645
30420,2.838,16374,10605,18151,11469,0.0154287,0.000601128,-0.113519
30440,3.115,16377,10607,18155,11473,0.0479843,-0.00224998,-0.140167
30460,3.49,16380,10608,18159,11478,0.0394087,0.000795758,-0.102001
30480,3.828,16381,10608,18163,11483,0.0602497,0.00322236,-0.133132
30500,3.943,16380,10607,18166,11489,0.0601184,0.000152257,-0.157605
30520,3.87,16377,10604,18167,11495,0.0673015,-0.000727638,-0.132858
30540,3.714,16373,10600,18167,11499,0.0871739,0.00106051,-0.12201
30560,3.499,16366,10594,18165,11502,0.0725766,-0.000124434,-0.0909412
30580,3.301,16358,10588,18161,11502,0.0810504,-0.000411784,-0.0156218
30600,3.2,16349,10582,18154,11499,0.064658,0.00714253,0.0295396
30620,3.099,16338,10575,18146,11493,0.0746408,0.0100936,0.0706701
30640,3.036,16327,10568,18134,11484,0.0626697,0.00883072,0.137915
30660,2.99,16316,10563,18122,11473,-0.00456676,0.00806261,0.16604
30680,2.916,16306,10558,18109,11460,-0.0378983,0.00645677,0.141253
30700,2.866,16297,10555,18097,11446,-0.0587123,0.0019751,0.178836
30720,2.905,16290,10553,18085,11432,-0.0651386,0.00281437,0.151492
30740,2.909,16286,10553,18075,11419,-0.083647,-0.00517787,0.135462
30760,2.959,16284,10555,18067,11407,-0.0942673,-0.0165762,0.132556
30780,2.996,16285,10558,18062,11398,-0.113163,-0.0222203,0.0778761
30800,3.042,16289,10563,18061,11393,-0.1071,-0.0257599,0.0473292
30820,3.05,16296,10570,18064,11391,-0.109472,-0.024983,0.0467396
30840,3.041,16305,10577,18069,11393,-0.109514,-0.0196795,-0.0811109
30860,2.954,16316,10585,18077,11399,-0.061652,-0.0180255,-0.0432652
30880,2.888,16328,10593,18087,11407,-0.0377352,-0.0115327,-0.0156825
30900,2.901,16340,10600,18100,11419,-0.00138457,-0.00719335,-0.0613026
30920,2.868,16352,10607,18113,11432,0.0218536,-0.00132212,-0.0400628
30940,2.859,16363,10613,18126,11447,0.0343591,0.00733296,-0.0427545
30960,2.849,16373,10617,18139,11462,0.0494463,0.0143586,-0.0391262
30980,2.864,16381,10620,18151,11476,0.0546055,0.0248212,-0.0191456
31000,2.881,16387,10621,18161,11490,0.0600554,0.0285884,-0.0320729
31020,2.863,16391,10620,18170,11503,0.0775375,0.0305969,0.0646247
31040,2.868,16393,10619,18177,11513,0.0402955,0.0284838,0.048374
31060,2.888,16394,10616,18182,11522,0.0620364,0.0258492,0.0818088
31080,2.957,16393,10613,18184,11528,0.0383652,0.023889,0.0906772
31100,3.194,16392,10609,18185,11533,0.0301797,0.0189591,0.0416715
31120,3.623,16391,10606,18185,11535,-0.0216008,0.0119476,0.0377932
31140,3.974,16391,10604,18183,11536,-0.0567983,-0.00216553,-0.0247399
31160,4,16391,10602,18180,11536,-0.0238464,-0.0145523,0.0107849
31180,3.995,16392,10602,18177,11534,-0.0555195,-0.0245373,0.0205562
31200,3.935,16395,10602,18173,11532,-0.0291196,-0.0307968,-0.00541953
31220,3.761,16399,10604,18169,11530,-0.0319194,-0.0301167,0.0461305
31240,3.533,16404,10607,18165,11527,-0.0849852,-0.0285394,-0.0991144
31260,3.348,16410,10611,18161,11525,-0.0390735,-0.0312462,-0.13146
31280,3.171,16417,10616,18157,11523,-0.0497462,-0.032505,-0.102684
31300,3.085,16424,10621,18154,11522,-0.00620128,-0.0354359,-0.112424
31320,3.018,16431,10625,18151,11522,0.0190851,-0.0338182,-0.100559
31340,2.965,16437,10630,18148,11522,0.029794,-0.0263403,-0.142529
31360,2.951,16443,10633,18146,11522,0.0614412,-0.0174114,-0.116923
31380,2.944,16448,10636,18143,11523,0.0655609,-0.012633,-0.045608
31400,2.982,16451,10637,18141,11524,0.0840583,-0.00696428,-0.0507833
31420,3.05,16453,10638,18138,11525,0.0899203,-0.00326145,-0.0333103
31440,3.123,16453,10637,18134,11525,0.0780537,0.00153312,-0.0511703
31460,3.124,16453,10636,18130,11525,0.0857143,-0.0027138,0.0196815
31480,3.138,16451,10634,18125,11523,0.0543471,0.000825809,0.0192347
31500,3.126,16448,10632,18119,11520,0.0512838,0.00165725,0.00406848
31520,3.113,16445,10630,18113,11516,0.0425153,0.00977317,0.103173
31540,3.056,16442,10628,18106,11510,-0.000458333,0.00356484,0.0762502
31560,2.994,16440,10627,18099,11503,-0.0446883,-0.00753416,0.0957823
31580,2.971,16438,10627,18092,11496,-0.0495541,-0.0122577,0.0688685
31600,2.923,16438,10628,18085,11488,-0.0517041,-0.0156527,0.0452037
31620,2.906,16440,10630,18078,11480,-0.0624909,-0.0125368,0.0537
31640,2.868,16443,10634,18073,11473,-0.0511742,-0.0155119,0.0492985
31660,2.867,16448,10638,18070,11467,-0.0594809,-0.016445,0.0736432
31680,2.859,16454,10643,18068,11463,-0.0678194,-0.0140137,0.0133593
31700,2.847,16462,10649,18067,11461,-0.0540042,-0.0148281,-0.00223955
31720,2.807,16471,10655,18069,11461,-0.0522515,-0.00544283,-0.0225006
31740,2.821,16481,10662,18072,11463,-0.0257476,-0.00335857,-0.0702804
31760,3.063,16492,10668,18077,11467,-0.00202912,0.000687636,-0.053645
31780,3.48,16502,10674,18082,11473,0.0352016,0.000183747,-0.0382369
31800,3.866,16512,10679,18088,11480,0.0366723,0.00564565,-0.0286224
31820,3.989,16522,10684,18095,11489,0.0270414,0.00491539,-0.026913
31840,3.993,16530,10688,18101,11498,0.0525466,0.0112763,-0.0544682
31860,3.89,16537,10692,18106,11507,0.0412237,0.0196264,-0.0598148
31880,3.698,16543,10694,18111,11516,0.060721,0.0195849,0.0343749
31900,3.467,16547,10696,18114,11524,0.0443294,0.0207685,0.036259
31920,3.312,16551,10698,18116,11531,0.0268835,0.0205058,0.0308236
31940,3.18,16553,10699,18117,11537,0.0192149,0.0266254,0.0367396
31960,3.074,16556,10700,18117,11541,0.0116309,0.0209849,0.0479074
31980,2.962,16557,10701,18115,11544,-0.0038684,0.0202731,0.0840556
32000,2.881,16559,10703,18113,11546,-0.0414054,0.0192173,0.072411
32020,2.901,16562,10706,18111,11547,-0.0453583,0.0129341,0.102985
32040,2.976,16565,10709,18109,11547,-0.0563398,0.0109481,0.0711379
32060,3.088,16569,10713,18107,11547,-0.0650504,0.00674999,0.0439062
32080,3.134,16574,10718,18106,11547,-0.0559035,0.00458785,0.0593884
32100,3.203,16581,10724,18107,11547,-0.0569039,0.00474925,0.0644837
32120,3.187,16589,10731,18109,11549,-0.0443605,0.00862573,0.0851391
32140,3.124,16598,10740,18113,11552,-0.0534279,0.0104263,0.0587039
32160,3.066,16609,10749,18120,11557,-0.0578439,0.00732324,0.0236152
32180,2.999,16620,10758,18128,11563,-0.0300779,0.00465061,-0.00572735
32200,2.968,16632,10768,18137,11571,-0.00810068,0.000801034,-0.028373
32220,2.906,16644,10778,18148,11581,-0.00402742,0.00437357,-0.078772
32240,2.835,16656,10788,18161,11592,0.0155913,0.00210853,-0.0615174
32260,2.812,16668,10796,18173,11603,0.0363666,-0.00293885,-0.059967
32280,2.804,16678,10804,18185,11615,0.0539104,-0.0145502,-0.140338
32300,2.866,16687,10811,18197,11626,0.049346,-0.0143479,-0.186782
32320,2.874,16695,10816,18207,11636,0.0580734,-0.0171171,-0.159167
32340,2.885,16700,10820,18215,11644,0.0637448,-0.01664,-0.147073
32360,2.867,16704,10823,18220,11651,0.0615164,-0.0148384,-0.134064
32380,2.888,16706,10824,18222,11655,0.0751757,-0.0134858,-0.0718143
32400,3.042,16705,10823,18221,11656,0.0608112,-0.010144,-0.0667157
32420,3.376,16703,10821,18217,11655,0.0648921,-0.00954322,-0.0305071
32440,3.802,16699,10818,18210,11650,0.0608086,-0.00488501,0.0152965
32460,3.993,16693,10814,18201,11644,0.0343889,-0.0012204,0.00881909
32480,3.995,16687,10810,18189,11635,0.00636135,0.00101094,0.0698771
32500,4,16680,10806,18176,11625,-0.0272245,0.00271732,0.0746923
32520,3.886,16674,10802,18163,11614,-0.0363689,0.0028268,0.0359341
32540,3.618,16668,10799,18150,11604,-0.0318431,0.00220248,0.0836409
32560,3.385,16664,10797,18138,11593,-0.044615,0.00304849,0.0761547
32580,3.193,16661,10796,18127,11585,-0.0533647,0.000247792,0.039999
32600,3.045,16659,10796,18119,11578,-0.0555572,0.000469953,0.0215241
32620,2.936,16660,10798,18114,11572,-0.0579154,-0.00469993,0.0341197
32640,2.881,16662,10801,18111,11569,-0.0406037,-0.00550873,0.00316502
32660,2.836,16666,10805,18110,11568,-0.0238134,-0.00144266,0.0233044
32680,2.835,16672,10810,18113,11569,-0.00713969,-0.00187752,0.0576786
32700,2.931,16678,10815,18117,11572,-0.0010482,0.00546636,0.044703
32720,3.059,16685,10821,18123,11576,0.0207119,0.0145135,0.0783054
32740,3.112,16692,10827,18130,11581,0.0208775,0.0168734,0.0792767
32760,3.082,16700,10832,18138,11588,0.00839184,0.0155279,0.0116347
32780,3.038,16707,10837,18146,11595,0.0120267,0.00913538,0.0621437
32800,3.035,16713,10841,18155,11602,-0.00543449,0.011843,-0.0363859
32820,3.01,16719,10845,18163,11610,-0.000798508,0.00281781,-0.0645404
32840,2.941,16724,10847,18171,11617,0.00432833,-0.00747454,-0.0417187
32860,2.887,16728,10849,18178,11624,0.0048544,-0.0194042,-0.132911
32880,2.852,16730,10850,18184,11629,0.0208767,-0.0245089,-0.121674
32900,2.839,16732,10850,18188,11634,0.027163,-0.0271968,-0.169927
32920,2.822,16732,10849,18191,11637,0.035149,-0.035113,-0.177002
32940,2.829,16731,10847,18192,11639,0.0292884,-0.0313596,-0.13512
32960,2.836,16728,10845,18190,11638,0.052576,-0.0287958,-0.0464517
32980,2.822,16724,10842,18187,11636,0.0580299,-0.0210711,0.0360946
33000,2.817,16718,10837,18182,11631,0.0385695,-0.0078145,0.00730775
33020,2.831,16711,10832,18174,11624,0.0330494,0.00400551,0.0216921
33040,2.941,16702,10826,18165,11615,-0.00042171,0.0140531,-0.010001
33060,3.297,16692,10820,18154,11604,0.00127884,0.0144017,0.0220507
33080,3.737,16682,10813,18142,11593,-0.0172206,0.00660913,0.11638
33100,4,16670,10805,18129,11581,-0.0470713,0.000907332,-0.00435306
33120,3.995,16658,10798,18117,11569,-0.034086,-0.00802054,0.0452628
33140,3.963,16647,10790,18105,11558,-0.0168118,-0.00987656,0.0740318
33160,3.761,16636,10783,18094,11549,-0.00721113,-0.0139179,0.0677757
33180,3.484,16625,10776,18085,11540,-0.0115778,-0.0109036,0.120628
33200,3.27,16616,10770,18078,11534,-0.0265893,-0.00722349,0.0476883
33220,3.095,16608,10764,18073,11530,-0.0154128,-0.00783331,0.0648373
33240,2.971,16601,10759,18071,11528,-0.007637,-0.00616533,0.0797639
33260,2.852,16595,10754,18070,11527,-0.0099213,-0.00884099,0.0792264
33280,2.81,16591,10750,18071,11528,-0.0131709,-0.00489388,0.106106
33300,2.787,16587,10747,18074,11530,-0.0202811,-0.00637205,0.122109
33320,2.794,16584,10744,18079,11533,-0.00960741,-0.0071734,0.134504
33340,2.871,16582,10742,18085,11538,-5.97E-05,-0.0123077,0.125454
33360,2.964,16581,10740,18092,11543,-0.00931658,-0.0199716,0.123039
33380,3.013,16580,10739,18100,11548,-0.0268186,-0.0122321,0.0419609
33400,3.034,16579,10737,18108,11553,-0.0294436,-0.00533009,-0.00453532
33420,3.048,16578,10736,18117,11559,-0.025497,-0.00105682,-0.00175752
33440,3.028,16578,10735,18126,11565,-0.0277011,-0.00307916,-0.0633599
33460,2.986,16577,10733,18135,11571,-0.0186421,-0.00775613,-0.109884
33480,2.941,16576,10732,18144,11577,-3.54E-05,-0.00918423,-0.143574
33500,2.867,16574,10730,18152,11581,0.0173706,-0.0086814,-0.168775
33520,2.822,16571,10728,18158,11585,0.0416565,-0.00324335,-0.171115
33540,2.789,16567,10725,18163,11587,0.0665464,0.00141,-0.165113
33560,2.773,16562,10720,18165,11587,0.0543514,0.00602104,-0.150923
33580,2.763,16554,10715,18165,11585,0.0592559,0.0126802,-0.178887
33600,2.805,16545,10708,18162,11581,0.067459,0.015615,-0.158955
33620,2.79,16534,10700,18155,11573,0.0696187,0.0211888,-0.0969439
33640,2.805,16520,10691,18146,11563,0.0962951,0.02174,0.00624581
33660,2.818,16505,10681,18134,11551,0.0746174,0.0260878,0.0795863
33680,2.971,16488,10671,18120,11537,0.0557297,0.0298339,0.0661574
33700,3.334,16471,10660,18105,11522,0.0276029,0.0333518,0.0981082
33720,3.785,16453,10650,18088,11506,0.0140974,0.0413861,0.0974026
33740,3.993,16436,10640,18072,11490,-0.00475843,0.0399996,0.136092
33760,3.992,16421,10631,18057,11476,-0.0411237,0.0324478,0.124833
33780,3.995,16407,10623,18043,11463,-0.0315978,0.0164885,0.13066
33800,3.982,16396,10617,18031,11452,-0.0648495,0.00167341,0.100592
33820,3.733,16387,10613,18022,11444,-0.0615164,-0.00791112,0.0705022
33840,3.428,16381,10610,18016,11438,-0.0544404,-0.0142019,0.0878759
33860,3.158,16378,10608,18013,11435,-0.0585987,-0.014442,0.0806183
33880,3.038,16378,10607,18013,11435,-0.0543736,-0.0132953,-0.00211247
33900,2.95,16380,10608,18014,11438,-0.0778069,-0.0103804,-0.081037
33920,2.903,16383,10609,18018,11442,-0.0696912,-0.0116017,-0.127464
33940,2.84,16388,10609,18024,11448,-0.0186403,-0.00518526,-0.154732
33960,2.796,16392,10610,18030,11455,0.035276,0.00374991,-0.145899
33980,2.826,16396,10610,18036,11462,0.0503733,0.0137151,-0.139976
34000,2.868,16399,10609,18042,11469,0.0480065,0.0173482,-0.144358
34020,2.926,16400,10606,18047,11475,0.0606093,0.0195496,-0.19801
34040,2.993,16399,10603,18051,11480,0.0695573,0.0219451,-0.197696
34060,2.982,16396,10598,18052,11483,0.0975516,0.0241853,-0.155181
34080,3.043,16390,10592,18052,11484,0.116333,0.0240575,-0.0559379
34100,2.996,16381,10585,18049,11482,0.0768752,0.0282705,0.026637
34120,2.944,16370,10578,18044,11477,0.0548544,0.0323844,-0.0262088
34140,2.898,16358,10571,18037,11470,0.0996065,0.0373289,0.0659443
34160,2.854,16344,10563,18028,11461,0.071107,0.0416771,0.0959661
34180,2.829,16330,10556,18018,11450,0.0596214,0.0383057,0.10266
34200,2.81,16317,10550,18008,11437,0.0108047,0.0303812,0.146
34220,2.807,16304,10546,17997,11423,-0.031364,0.0201825,0.1766
34240,2.811,16294,10542,17987,11410,-0.0473316,0.0119058,0.16917
34260,2.825,16285,10540,17978,11396,-0.0673924,0.00388133,0.146551
34280,2.814,16280,10540,17971,11384,-0.0720231,0.00393349,0.15574
34300,2.768,16277,10541,17966,11374,-0.077225,-8.03E-05,0.142757
34320,2.794,16278,10543,17964,11367,-0.100026,-0.000278731,0.107161
34340,2.919,16281,10547,17965,11362,-0.107582,0.0011777,0.071406
34360,3.312,16287,10551,17969,11361,-0.117578,-0.00232213,0.0225809
34380,3.826,16295,10555,17975,11363,-0.12369,-0.000816293,-0.0607541
34400,3.989,16305,10560,17984,11368,-0.10739,-0.00228383,-0.13938
34420,3.995,16315,10564,17994,11376,-0.0757961,-0.00984059,-0.168879
34440,3.992,16326,10567,18005,11387,-0.0149767,-0.0186649,-0.15859
34460,3.972,16335,10570,18016,11399,0.0131995,-0.0246637,-0.153666
34480,3.726,16343,10571,18027,11412,0.0106685,-0.0268328,-0.166671
34500,3.402,16349,10571,18037,11424,0.0746627,-0.018481,-0.0869106
34520,3.186,16352,10570,18045,11436,0.0764748,-0.00383783,-0.0383809
34540,3.059,16353,10567,18051,11447,0.10756,0.0157997,0.0100677
34560,2.936,16351,10563,18055,11455,0.131408,0.0363567,0.10275
34580,2.88,16346,10559,18056,11461,0.0945443,0.0476831,0.183682
34600,2.822,16340,10554,18055,11465,0.080866,0.0529226,0.21683
34620,2.769,16333,10549,18053,11466,0.0630611,0.0471573,0.221643
34640,2.815,16325,10545,18049,11465,0.00484452,0.0394291,0.157391
34660,2.838,16317,10541,18045,11462,-0.0109588,0.0221812,0.20383
34680,2.891,16311,10538,18041,11458,-0.0285079,0.0107388,0.188053
34700,2.927,16307,10537,18039,11454,-0.0397082,-0.0048078,0.255272
34720,2.968,16306,10538,18038,11450,-0.0534055,-0.0109912,0.264486
34740,2.95,16308,10540,18039,11448,-0.108797,-0.0106986,0.169446
34760,2.912,16312,10545,18043,11447,-0.105284,-0.00766498,0.129811
34780,2.846,16320,10551,18050,11449,-0.120412,-0.0018438,0.00715377
34800,2.773,16331,10559,18059,11454,-0.0533995,0.00496593,0.0278627
34820,2.663,16344,10568,18072,11462,-0.0523433,-0.00132277,0.108675
34840,2.654,16359,10578,18088,11473,-0.100541,-0.0144,-0.00948289
34860,2.603,16375,10588,18105,11487,-0.0749675,-0.019782,-0.0915878
34880,2.562,16392,10598,18124,11503,-0.0804183,-0.0232225,-0.208797
34900,2.566,16407,10607,18144,11522,-0.0482036,-0.021856,-0.221848
34920,2.611,16420,10614,18164,11541,-0.0515684,-0.00868223,-0.571934
34940,2.659,16431,10619,18182,11561,0.0830346,-0.0207005,-0.229556
34960,2.682,16439,10621,18197,11579,0.0362593,-0.00622446,-0.292115
34980,2.706,16443,10621,18210,11595,0.0657645,-0.0096921,-0.50501
35000,2.775,16442,10617,18218,11608,0.0997722,0.00504641,-0.399483
35020,3.022,16436,10611,18220,11616,0.135094,0.00598649,-0.288586
35040,3.444,16425,10601,18216,11618,0.17676,0.0211043,-0.27111
35060,3.909,16410,10589,18206,11614,0.0754516,0.00916779,-0.353781
35080,3.996,16390,10574,18188,11604,0.0843855,0.00642485,-0.255128
35100,3.984,16365,10557,18164,11586,0.109307,-0.00832466,-0.133473
35120,3.956,16338,10539,18133,11562,0.0833423,-0.0132615,0.0231344
35140,3.709,16308,10521,18097,11532,0.159537,0.00105372,0.224737
35160,3.428,16278,10503,18059,11498,0.156052,0.0221213,0.327608
35180,3.221,16248,10486,18019,11462,0.178671,0.041593,0.394584
35200,3.053,16220,10472,17980,11425,0.129945,0.0580884,0.399142
35220,2.936,16197,10461,17943,11389,0.0815336,0.035559,0.468469
35240,2.846,16178,10453,17912,11357,0.135961,0.0294041,0.777986
35260,2.779,16166,10449,17889,11332,0.0107176,0.0395337,0.562995
35280,2.699,16162,10451,17875,11315,-0.0428323,0.030759,0.471331
35300,2.684,16166,10457,17870,11305,-0.0857067,0.0454212,0.485405
35320,2.721,16178,10468,17876,11306,-0.142974,0.0200631,0.277323
35340,2.793,16198,10483,17892,11315,-0.0948295,0.00666155,0.248873
35360,2.805,16225,10502,17918,11334,-0.162736,-0.0155046,-0.0889364
35380,2.843,16257,10524,17951,11361,-0.149515,-0.030372,-0.0938326
35400,2.916,16293,10548,17990,11394,-0.250941,-0.0107129,-0.503737
35420,2.888,16330,10571,18032,11431,-0.297092,-0.0178476,-1.01106
